accx,accy,accz,vx,vy,vz,px,py,pz
0.001326633,0.008291888,-0.004850176,-0.003017897,-0.004640037,-0.00109809,0.582349156,0.229874871,0.00143764
0.001326633,0.008291888,-0.004850176,-0.003017897,-0.004640037,-0.00109809,0.582343118,0.229865563,0.001435463
0.004299119,0.019322209,-0.009391549,-0.003012591,-0.004606869,-0.001117491,0.582337084,0.229856311,0.001433247
0.007576525,0.024738323,-0.008751368,-0.003000701,-0.004562748,-0.001135656,0.582331068,0.229847135,0.001430993
0.010817182,0.030017791,-0.008065981,-0.002982285,-0.004507916,-0.001152496,0.582325081,0.22983806,0.001428705
0.014004956,0.035131102,-0.007335585,-0.002957432,-0.004442677,-0.00116792,0.582319138,0.229829104,0.001426383
0.017124125,0.040050431,-0.006561005,-0.002926265,-0.004367391,-0.001181839,0.582313252,0.229820289,0.001424033
0.020159489,0.044749877,-0.005743698,-0.002888936,-0.004282475,-0.001194164,0.582307433,0.229811634,0.001421656
0.023096477,0.049205659,-0.004885731,-0.002845627,-0.004188392,-0.001204813,0.582301696,0.229803159,0.001419256
0.025921252,0.053396287,-0.003989752,-0.00279655,-0.004085652,-0.001213707,0.582296051,0.229794881,0.001416837
0.028620802,0.057302687,-0.003058942,-0.002741942,-0.003974807,-0.001220772,0.58229051,0.229786816,0.001414401
0.03118304,0.060908296,-0.002096965,-0.002682067,-0.003856441,-0.001225943,0.582285083,0.229778981,0.001411954
0.033596888,0.064199124,-0.00110789,-0.00261721,-0.003731173,-0.00122916,0.582279781,0.229771391,0.001409498
0.035852349,0.067163776,-9.61104E-05,-0.002547679,-0.003599645,-0.001230374,0.582274614,0.229764057,0.001407037
0.037940568,0.069793446,0.000933738,-0.0024738,-0.003462518,-0.001229545,0.582269591,0.229756992,0.001404576
0.039853884,0.072081881,0.001976865,-0.002395917,-0.003320471,-0.001226639,0.582264719,0.229750207,0.001402119
0.041585859,0.074025326,0.003028387,-0.002314385,-0.003174191,-0.001221637,0.582260007,0.22974371,0.00139967
0.043131304,0.075622438,0.004083392,-0.002229573,-0.00302437,-0.001214526,0.582255462,0.22973751,0.001397232
0.044486291,0.076874189,0.005136982,-0.00214186,-0.002871701,-0.001205304,0.582251089,0.229731613,0.001394812
0.045648149,0.077783749,0.006184309,-0.002051628,-0.002716873,-0.001193978,0.582246894,0.229726023,0.001392411
0.046615455,0.078356362,0.007220608,-0.001959267,-0.002560566,-0.001180566,0.582242882,0.229720745,0.001390036
0.047388013,0.078599204,0.008241223,-0.001865166,-0.002403448,-0.001165096,0.582239057,0.229715781,0.001387689
0.047966817,0.078521246,0.009241633,-0.001769715,-0.002246169,-0.001147602,0.582235422,0.229711131,0.001385375
0.048354003,0.078133107,0.010217473,-0.001673299,-0.002089363,-0.001128129,0.582231978,0.229706796,0.001383099
0.048552791,0.0774469,0.011164552,-0.001576299,-0.001933637,-0.001106732,0.582228728,0.229702774,0.001380863
0.04856742,0.076476085,0.012078872,-0.001479088,-0.001779575,-0.001083471,0.582225673,0.229699062,0.001378672
0.04840307,0.075235306,0.012956635,-0.001382029,-0.001627732,-0.001058416,0.582222812,0.229695656,0.001376529
0.048065792,0.073740239,0.013794253,-0.001285476,-0.001478634,-0.001031644,0.582220145,0.229692551,0.001374438
0.04756242,0.072007427,0.014588348,-0.001189766,-0.001332772,-0.001003239,0.58221767,0.229689741,0.001372402
0.046900492,0.070054124,0.015335754,-0.001095226,-0.001190604,-0.000973291,0.582215386,0.22968722,0.001370425
0.046088163,0.06789814,0.016033521,-0.001002164,-0.001052555,-0.000941896,0.582213289,0.229684979,0.001368509
0.045134121,0.065557703,0.016678912,-0.000910873,-0.000919012,-0.000909157,0.582211377,0.229683009,0.001366657
0.0440475,0.063051318,0.017269413,-0.000821628,-0.000790324,-0.00087518,0.582209646,0.229681303,0.001364872
0.042837809,0.060397645,0.017802738,-0.000734683,-0.000666806,-0.000840079,0.582208091,0.229679848,0.001363157
0.041514856,0.057615388,0.018276826,-0.000650277,-0.000548734,-0.00080397,0.582206707,0.229678635,0.001361512
0.040088686,0.054723179,0.018689854,-0.000568624,-0.000436345,-0.000766972,0.58220549,0.229677653,0.001359941
0.038569515,0.051739485,0.019040234,-0.000489922,-0.000329841,-0.00072921,0.582204432,0.22967689,0.001358444
0.036967679,0.048682511,0.019326618,-0.000414346,-0.000229387,-0.000690811,0.58220353,0.229676334,0.001357024
0.035293566,0.045570115,0.019547902,-0.000342051,-0.000135111,-0.000651904,0.582202775,0.229675972,0.001355681
0.033557564,0.042419726,0.019703234,-0.000273172,-4.71063E-05,-0.000612619,0.582202162,0.229675793,0.001354416
0.031770001,0.039248269,0.019792028,-0.000207821,3.4568E-05,-0.000573091,0.582201682,0.229675784,0.001353231
0.029941091,0.036072089,0.01981398,-0.000146092,0.000109887,-0.000533451,0.58220133,0.229675932,0.001352124
0.028080874,0.032906883,0.019769091,-8.80564E-05,0.000178856,-0.000493835,0.582201098,0.229676224,0.001351097
0.02619917,0.029767636,0.019657684,-3.37681E-05,0.000241514,-0.000454375,0.582200978,0.229676647,0.001350149
0.024305521,0.026668561,0.019480425,1.67402E-05,0.000297927,-0.000415204,0.582200963,0.22967719,0.001349279
0.022409146,0.023623058,0.019238335,6.3454E-05,0.000348189,-0.000376453,0.582201045,0.229677839,0.001348488
0.020518888,0.02064367,0.018932805,0.000106377,0.000392419,-0.000338251,0.582201217,0.229678582,0.001347773
0.018643175,0.017742061,0.018565606,0.00014553,0.000430763,-0.000300722,0.582201471,0.229679408,0.001347135
0.016789985,0.014928994,0.018138886,0.00018095,0.000463387,-0.000263988,0.582201799,0.229680305,0.001346571
0.014966812,0.012214314,0.017655184,0.000212689,0.000490479,-0.000228166,0.582202194,0.229681262,0.001346079
0.01318065,0.00960694,0.017117416,0.000240817,0.000512245,-0.000193368,0.58220265,0.229682267,0.001345658
0.011437972,0.00711486,0.016528872,0.000265412,0.000528907,-0.000159697,0.582203158,0.229683311,0.001345305
0.009744723,0.00474513,0.015893204,0.000286569,0.000540704,-0.000127252,0.582203711,0.229684383,0.001345019
0.008106315,0.002503872,0.015214395,0.000304391,0.000547887,-9.61239E-05,0.582204304,0.229685474,0.001344796
0.006527633,0.000396285,0.01449674,0.000318994,0.00055072,-6.63945E-05,0.582204929,0.229686574,0.001344635
0.005013038,-0.001573362,0.013744806,0.000330502,0.000549473,-3.81369E-05,0.58220558,0.229687677,0.001344531
0.003566389,-0.003401722,0.012963396,0.000339046,0.000544426,-1.14152E-05,0.582206251,0.229688772,0.001344482
0.002191052,-0.005086369,0.012157506,0.000344767,0.000535866,1.37166E-05,0.582206936,0.229689854,0.001344485
0.000889921,-0.006625784,0.011332274,0.00034781,0.000524081,3.72148E-05,0.58220763,0.229690916,0.001344537
-0.000334571,-0.008019342,0.010492933,0.000348327,0.000509363,5.90457E-05,0.582208327,0.229691951,0.001344634
-0.001480442,-0.00926728,0.009644752,0.000346472,0.000492003,7.91865E-05,0.582209023,0.229692953,0.001344773
-0.002546146,-0.010370669,0.008792982,0.000342405,0.000472293,9.76247E-05,0.582209713,0.229693919,0.001344951
-0.003530575,-0.011331364,0.007942801,0.000336287,0.000450521,0.000114358,0.582210393,0.229694842,0.001345164
-0.004433037,-0.012151956,0.00709926,0.000328283,0.000426968,0.000129396,0.582211058,0.229695721,0.001345408
-0.005253254,-0.01283571,0.006267235,0.000318555,0.000401913,0.000142755,0.582211706,0.22969655,0.001345681
-0.005991344,-0.013386505,0.005451376,0.00030727,0.000375625,0.000154465,0.582212333,0.229697328,0.001345979
-0.006647802,-0.01380876,0.004656071,0.00029459,0.000348367,0.000164561,0.582212935,0.229698053,0.001346299
-0.007223481,-0.014107367,0.003885404,0.000280678,0.00032039,0.000173089,0.582213511,0.229698722,0.001346637
-0.007719569,-0.014287617,0.003143129,0.000265696,0.000291937,0.000180103,0.582214058,0.229699334,0.001346991
-0.008137567,-0.014355135,0.002432645,0.0002498,0.00026324,0.000185662,0.582214574,0.22969989,0.001347358
-0.008479265,-0.014315817,0.001756973,0.000233146,0.000234517,0.000189833,0.582215057,0.229700387,0.001347734
-0.008746718,-0.014175776,0.001118742,0.000215883,0.000205976,0.00019269,0.582215506,0.229700828,0.001348117
-0.008942228,-0.013941305,0.000520171,0.000198159,0.000177814,0.000194308,0.582215921,0.229701211,0.001348505
-0.009068325,-0.013618834,-3.69329E-05,0.000180114,0.000150211,0.00019477,0.582216299,0.229701539,0.001348894
-0.009127747,-0.013214898,-0.000551187,0.000161886,0.000123338,0.00019416,0.582216641,0.229701812,0.001349284
-0.009123427,-0.012736104,-0.001021624,0.000143603,9.73516E-05,0.000192566,0.582216946,0.229702032,0.001349671
-0.009058476,-0.012189101,-0.001447687,0.000125392,7.23939E-05,0.000190074,0.582217215,0.229702202,0.001350054
-0.008936169,-0.011580546,-0.001829217,0.000107369,4.85952E-05,0.000186775,0.582217448,0.229702322,0.001350431
-0.008759933,-0.010917079,-0.002166443,8.96471E-05,2.60717E-05,0.000182757,0.582217645,0.229702396,0.001350801
-0.008533325,-0.010205301,-0.00245997,7.23296E-05,4.92684E-06,0.000178109,0.582217807,0.229702426,0.001351162
-0.00826001,-0.009451747,-0.002710761,5.55138E-05,-1.47495E-05,0.000172917,0.582217934,0.229702416,0.001351514
-0.007943745,-0.008662862,-0.00292013,3.92895E-05,-3.28801E-05,0.000167266,0.582218029,0.229702367,0.001351854
-0.007588343,-0.007844976,-0.00308972,2.37389E-05,-4.94009E-05,0.000161237,0.582218091,0.229702284,0.001352183
-0.007197652,-0.007004287,-0.00322149,8.93618E-06,-6.426E-05,0.000154907,0.582218124,0.22970217,0.001352499
-0.006775529,-0.006146838,-0.003317689,-5.05176E-06,-7.74181E-05,0.000148351,0.582218127,0.229702027,0.001352802
-0.006325819,-0.005278501,-0.003380828,-1.81659E-05,-8.88474E-05,0.000141636,0.582218103,0.22970186,0.001353092
-0.005852334,-0.004404964,-0.00341365,-3.0355E-05,-9.85321E-05,0.000134827,0.582218054,0.229701672,0.001353369
-0.005358837,-0.003531702,-0.003419097,-4.15753E-05,-0.000106467,0.000127982,0.582217982,0.229701466,0.001353632
-0.004849034,-0.002663964,-0.003400271,-5.17904E-05,-0.000112659,0.000121151,0.582217888,0.229701246,0.001353881
-0.004326561,-0.00180675,-0.003360403,-6.09714E-05,-0.000117123,0.000114381,0.582217775,0.229701015,0.001354116
-0.003794988,-0.000964799,-0.003302812,-6.90966E-05,-0.000119886,0.000107709,0.582217644,0.229700777,0.001354338
-0.003257812,-0.000142586,-0.003230867,-7.61514E-05,-0.000120982,0.000101169,0.582217498,0.229700536,0.001354547
-0.002718451,0.000655682,-0.003147946,-8.21279E-05,-0.000120456,9.47859E-05,0.58221734,0.229700293,0.001354743
-0.002180242,0.001426057,-0.003057391,-8.70252E-05,-0.00011836,8.85776E-05,0.58221717,0.229700054,0.001354926
-0.001646425,0.002164857,-0.00296246,-9.08488E-05,-0.000114752,8.25564E-05,0.582216992,0.22969982,0.001355097
-0.001120134,0.002868659,-0.002866286,-9.36109E-05,-0.0001097,7.67278E-05,0.582216807,0.229699595,0.001355257
-0.000604377,0.00353431,-0.002771835,-9.53294E-05,-0.000103277,7.10912E-05,0.582216617,0.229699381,0.001355404
-0.000102019,0.004158938,-0.002681878,-9.60284E-05,-9.55629E-05,6.56404E-05,0.582216425,0.229699182,0.001355541
0.000384235,0.00473996,-0.002598959,-9.57375E-05,-8.66416E-05,6.03637E-05,0.582216233,0.229698999,0.001355667
0.00085186,0.005275097,-0.002525371,-9.44914E-05,-7.66031E-05,5.52446E-05,0.582216042,0.229698835,0.001355782
0.001298523,0.005762374,-0.002463132,-9.233E-05,-6.55412E-05,5.02622E-05,0.582215855,0.229698692,0.001355888
0.001722099,0.006200126,-0.002413958,-8.92973E-05,-5.35536E-05,4.53921E-05,0.582215673,0.229698573,0.001355983
0.002120679,0.006586991,-0.002379236,-8.54416E-05,-4.07407E-05,4.06064E-05,0.582215498,0.229698478,0.001356069
0.002492577,0.006921918,-0.002360001,-8.08146E-05,-2.72056E-05,3.58751E-05,0.582215331,0.22969841,0.001356146
0.002836332,0.007204155,-0.002356906,-7.54713E-05,-1.3053E-05,3.11664E-05,0.582215175,0.229698369,0.001356213
0.003150702,0.007433247,-0.002370205,-6.94693E-05,1.61101E-06,2.64475E-05,0.582215029,0.229698358,0.00135627
0.003434665,0.007609022,-0.002399729,-6.28685E-05,1.66799E-05,2.16856E-05,0.582214897,0.229698376,0.001356319
0.003687406,0.007731576,-0.002444885,-5.57306E-05,3.20471E-05,1.68486E-05,0.582214778,0.229698424,0.001356357
0.003908311,0.007801251,-0.002504654,-4.81189E-05,4.76063E-05,1.1906E-05,0.582214674,0.229698504,0.001356386
0.004096957,0.007818619,-0.002577605,-4.00974E-05,6.32521E-05,6.82995E-06,0.582214585,0.229698615,0.001356405
0.0042531,0.007784459,-0.002661918,-3.1731E-05,7.88807E-05,1.59561E-06,0.582214513,0.229698757,0.001356413
0.004376657,0.007699747,-0.002755406,-2.3085E-05,9.43899E-05,-3.81772E-06,0.582214458,0.22969893,0.001356411
0.004467698,0.007565648,-0.002855558,-1.42244E-05,0.00010968,-9.42602E-06,0.582214421,0.229699135,0.001356398
0.004526427,0.007383508,-0.002959573,-5.2142E-06,0.000124653,-1.52399E-05,0.582214402,0.229699369,0.001356374
0.004553175,0.007154861,-0.003064406,3.88129E-06,0.000139214,-2.12643E-05,0.5822144,0.229699633,0.001356337
0.004548385,0.00688143,-0.003166825,1.29985E-05,0.000153272,-2.74976E-05,0.582214417,0.229699926,0.001356288
0.004512604,0.00656513,-0.003263468,2.20748E-05,0.000166739,-3.39316E-05,0.582214452,0.229700246,0.001356227
0.004446475,0.006208069,-0.003350907,3.10489E-05,0.000179532,-4.05514E-05,0.582214505,0.229700593,0.001356153
0.004350722,0.00581255,-0.003425717,3.98607E-05,0.000191572,-4.73352E-05,0.582214576,0.229700964,0.001356065
0.004226142,0.00538106,-0.003484545,4.84518E-05,0.000202783,-5.42543E-05,0.582214665,0.229701359,0.001355963
0.004073596,0.004916271,-0.00352419,5.67653E-05,0.000213096,-6.12734E-05,0.58221477,0.229701776,0.001355848
0.003894007,0.004421031,-0.003541667,6.47462E-05,0.000222448,-6.83511E-05,0.582214892,0.229702212,0.001355718
0.003688357,0.003898351,-0.003534285,7.23413E-05,0.00023078,-7.54401E-05,0.582215029,0.229702665,0.001355575
0.003457685,0.003351395,-0.003499706,7.94996E-05,0.000238041,-8.24882E-05,0.582215181,0.229703135,0.001355417
0.003203092,0.002783465,-0.003436011,8.61721E-05,0.000244186,-8.94389E-05,0.582215347,0.229703618,0.001355245
0.002925746,0.002197979,-0.003341746,9.2312E-05,0.000249175,-9.62323E-05,0.582215526,0.229704111,0.001355059
0.002626886,0.001598447,-0.003215965,9.78751E-05,0.000252978,-0.000102806,0.582215716,0.229704614,0.00135486
0.002307837,0.000988446,-0.003058259,0.00010282,0.000255569,-0.000109096,0.582215917,0.229705123,0.001354648
0.001970012,0.000371591,-0.002868774,0.000107106,0.000256931,-0.000115039,0.582216128,0.229705637,0.001354423
0.001614929,-0.000248487,-0.002648214,0.0001107,0.000257055,-0.000120571,0.582216346,0.229706151,0.001354187
0.001244215,-0.000868173,-0.002397833,0.000113566,0.000255937,-0.000125632,0.582216571,0.229706665,0.001353941
0.000859619,-0.00148389,-0.002119414,0.000115676,0.000253583,-0.000130163,0.5822168,0.229707175,0.001353685
0.000463013,-0.002092125,-0.001815236,0.000117005,0.000250002,-0.000134109,0.582217033,0.229707679,0.00135342
5.63949E-05,-0.002689446,-0.001488034,0.000117528,0.000245214,-0.000137423,0.582217268,0.229708175,0.001353148
-0.000358113,-0.003272519,-0.001140942,0.00011723,0.000239244,-0.000140062,0.582217503,0.22970866,0.001352871
-0.00077827,-0.003838112,-0.000777441,0.000116096,0.000232124,-0.000141987,0.582217737,0.229709132,0.001352588
-0.001201729,-0.004383104,-0.00040129,0.000114117,0.000223892,-0.000143171,0.582217968,0.229709588,0.001352303
-0.001626053,-0.004904486,-1.64629E-05,0.000111289,0.000214592,-0.000143592,0.582218194,0.229710027,0.001352016
-0.002048728,-0.00539937,0.00037291,0.000107613,0.000204274,-0.000143237,0.582218413,0.229710447,0.001351728
-0.002467182,-0.005865007,0.0007626,0.000103094,0.000192994,-0.000142101,0.582218624,0.229710845,0.001351443
-0.002878802,-0.006298813,0.001148339,9.77441E-05,0.000180814,-0.000140187,0.582218825,0.229711219,0.00135116
-0.00328094,-0.006698401,0.001525865,9.1579E-05,0.000167799,-0.000137507,0.582219015,0.229711568,0.001350882
-0.003670935,-0.007061613,0.001890981,8.46204E-05,0.00015402,-0.000134083,0.582219192,0.22971189,0.00135061
-0.004046119,-0.007386541,0.002239595,7.68953E-05,0.000139552,-0.000129944,0.582219353,0.229712184,0.001350345
-0.004403838,-0.007671546,0.002567771,6.84359E-05,0.000124474,-0.000125125,0.582219499,0.229712448,0.00135009
-0.004741462,-0.007915266,0.002871769,5.92799E-05,0.000108866,-0.000119672,0.582219627,0.229712682,0.001349845
-0.005056411,-0.008116621,0.003148089,4.94701E-05,9.28128E-05,-0.000113638,0.582219736,0.229712884,0.001349611
-0.005346176,-0.008274813,0.003393515,3.90543E-05,7.63997E-05,-0.00010708,0.582219825,0.229713053,0.00134939
-0.005608355,-0.008389329,0.003605155,2.80854E-05,5.97136E-05,-0.000100064,0.582219892,0.229713189,0.001349183
-0.005840677,-0.008459934,0.003780472,1.66208E-05,4.28424E-05,-9.26594E-05,0.582219937,0.229713292,0.00134899
-0.006041032,-0.008486677,0.003917318,4.72265E-06,2.58739E-05,-8.49419E-05,0.582219959,0.229713361,0.001348812
-0.006207505,-0.008469887,0.004013955,-7.54328E-06,8.89564E-06,-7.69902E-05,0.582219956,0.229713395,0.00134865
-0.006338399,-0.008410175,0.004069073,-2.01074E-05,-8.00569E-06,-6.88861E-05,0.582219929,0.229713396,0.001348504
-0.006432255,-0.008308434,0.004081809,-3.28969E-05,-2.47451E-05,-6.07139E-05,0.582219876,0.229713363,0.001348375
-0.006487877,-0.008165846,0.004051748,-4.58364E-05,-4.12394E-05,-5.25589E-05,0.582219797,0.229713297,0.001348262
-0.006504349,-0.007983875,0.003978937,-5.88484E-05,-5.74084E-05,-4.45069E-05,0.582219693,0.229713198,0.001348165
-0.006481048,-0.007764271,0.003863878,-7.18538E-05,-7.31749E-05,-3.66431E-05,0.582219562,0.229713068,0.001348084
-0.006417659,-0.007509053,0.00370752,-8.47726E-05,-8.84655E-05,-2.90514E-05,0.582219405,0.229712906,0.001348018
-0.006314182,-0.007220496,0.003511246,-9.75244E-05,-0.000103211,-2.1813E-05,0.582219223,0.229712714,0.001347967
-0.006170943,-0.006901098,0.003276846,-0.000110029,-0.000117348,-1.50064E-05,0.582219015,0.229712493,0.001347931
-0.005988589,-0.006553543,0.003006495,-0.000122208,-0.000130816,-8.70567E-06,0.582218783,0.229712244,0.001347907
-0.005768093,-0.006180659,0.002702716,-0.000133984,-0.000143562,-2.98041E-06,0.582218526,0.22971197,0.001347896
-0.005510745,-0.00578537,0.002368338,-0.000145281,-0.000155538,2.1052E-06,0.582218247,0.22971167,0.001347895
-0.005218149,-0.00537065,0.002006461,-0.000156027,-0.000166703,6.49294E-06,0.582217945,0.229711347,0.001347904
-0.004892217,-0.004939481,0.001620408,-0.000166153,-0.000177021,1.0131E-05,0.582217623,0.229711003,0.001347921
-0.004535153,-0.004494821,0.001213684,-0.000175596,-0.000186461,1.29746E-05,0.58221728,0.229710639,0.001347945
-0.004149447,-0.004039582,0.000789939,-0.000184294,-0.000195,1.49858E-05,0.58221692,0.229710257,0.001347973
-0.003737849,-0.003576615,0.00035293,-0.000192193,-0.000202619,1.61343E-05,0.582216543,0.229709859,0.001348005
-0.00330335,-0.003108701,-9.35197E-05,-0.000199245,-0.000209307,1.63975E-05,0.582216151,0.229709447,0.001348038
-0.002849157,-0.002638546,-0.000545548,-0.000205407,-0.000215054,1.57602E-05,0.582215746,0.229709022,0.00134807
-0.002378658,-0.002168774,-0.000999289,-0.000210642,-0.000219861,1.42153E-05,0.58221533,0.229708587,0.001348101
-0.00189539,-0.001701924,-0.001450901,-0.000214921,-0.000223729,1.17631E-05,0.582214904,0.229708143,0.001348127
-0.001402992,-0.001240451,-0.001896591,-0.000218223,-0.000226668,8.4117E-06,0.58221447,0.229707692,0.001348148
-0.000905167,-0.00078671,-0.002332632,-0.000220533,-0.000228691,4.17673E-06,0.582214031,0.229707236,0.001348161
-0.000405633,-0.000342956,-0.00275538,-0.000221844,-0.000229815,-9.18832E-07,0.582213588,0.229706777,0.001348165
9.19159E-05,8.86726E-05,-0.003161288,-0.000222156,-0.000230063,-6.8448E-06,0.582213143,0.229706317,0.001348157
0.000583855,0.000506162,-0.003546915,-0.000221476,-0.000229461,-1.3564E-05,0.582212699,0.229705857,0.001348137
0.00106666,0.000907627,-0.003908945,-0.00021982,-0.000228038,-2.10325E-05,0.582212258,0.229705399,0.001348103
0.001536936,0.001291318,-0.004244197,-0.00021721,-0.00022583,-2.91998E-05,0.58221182,0.229704945,0.001348053
0.001991446,0.001655621,-0.004549652,-0.000213673,-0.000222873,-3.80092E-05,0.582211389,0.229704496,0.001347986
0.002427129,0.001999064,-0.004822473,-0.000209244,-0.000219208,-4.73984E-05,0.582210965,0.229704053,0.001347901
0.002841115,0.002320315,-0.005060031,-0.000203964,-0.000214877,-5.72991E-05,0.582210552,0.229703619,0.001347797
0.003230752,0.002618194,-0.005259929,-0.000197879,-0.000209926,-6.76385E-05,0.582210149,0.229703194,0.001347672
0.003593612,0.002891679,-0.00542003,-0.000191041,-0.000204404,-7.83389E-05,0.58220976,0.229702779,0.001347526
0.003927516,0.003139924,-0.005538476,-0.000183505,-0.00019836,-8.93186E-05,0.582209385,0.229702376,0.001347359
0.004230545,0.003362275,-0.005613708,-0.000175331,-0.000191844,-0.000100493,0.582209026,0.229701986,0.001347169
0.004501055,0.00355829,-0.005644493,-0.000166583,-0.00018491,-0.000111773,0.582208684,0.229701609,0.001346957
0.004737693,0.003727748,-0.005629932,-0.000157327,-0.000177611,-0.000123071,0.58220836,0.229701246,0.001346722
0.004939404,0.003870651,-0.005569483,-0.000147632,-0.000169999,-0.000134293,0.582208055,0.229700898,0.001346464
0.005105453,0.003987221,-0.005462962,-0.000137569,-0.000162129,-0.000145349,0.582207769,0.229700566,0.001346185
0.00523543,0.004077896,-0.00531056,-0.00012721,-0.000154051,-0.000156145,0.582207504,0.22970025,0.001345883
0.005329273,0.004143324,-0.005112841,-0.000116628,-0.000145817,-0.000166591,0.58220726,0.22969995,0.00134556
0.005387271,0.004184347,-0.004870748,-0.000105893,-0.000137477,-0.000176596,0.582207038,0.229699666,0.001345217
0.00541007,0.004201991,-0.004585605,-9.50784E-05,-0.00012908,-0.000186074,0.582206837,0.2296994,0.001344854
0.005398674,0.00419745,-0.004259116,-8.42529E-05,-0.000120669,-0.000194939,0.582206658,0.22969915,0.001344472
0.005354431,0.004172068,-0.003893356,-7.34837E-05,-0.00011229,-0.00020311,0.5822065,0.229698917,0.001344074
0.005279021,0.00412732,-0.003490757,-6.28352E-05,-0.000103981,-0.000210512,0.582206364,0.229698701,0.00134366
0.005174432,0.004064793,-0.003054095,-5.23677E-05,-9.57805E-05,-0.000217073,0.582206249,0.229698501,0.001343232
0.005042926,0.003986158,-0.00258647,-4.21374E-05,-8.77219E-05,-0.000222729,0.582206154,0.229698318,0.001342792
0.004887006,0.003893149,-0.002091278,-3.2196E-05,-7.98358E-05,-0.000227419,0.58220608,0.22969815,0.001342341
0.004709365,0.003787542,-0.001572184,-2.25894E-05,-7.21493E-05,-0.000231094,0.582206025,0.229697998,0.001341882
0.004512836,0.003671127,-0.001033099,-1.33585E-05,-6.46857E-05,-0.000233708,0.58220599,0.229697862,0.001341416
0.004300342,0.003545703,-0.000478144,-4.53807E-06,-5.74648E-05,-0.000235226,0.582205972,0.22969774,0.001340947
0.004074837,0.003413055,8.83806E-05,3.84287E-06,-5.05029E-05,-0.000235621,0.582205972,0.229697632,0.001340476
0.003839262,0.003274949,0.000662022,1.17613E-05,-4.38126E-05,-0.000234873,0.582205987,0.229697538,0.001340005
0.00359649,0.003133108,0.001238214,1.91999E-05,-3.74031E-05,-0.000232972,0.582206019,0.229697457,0.001339536
0.003349296,0.002989197,0.00181231,2.61472E-05,-3.12801E-05,-0.00022992,0.582206064,0.229697388,0.001339073
0.003100316,0.002844801,0.002379619,3.25971E-05,-2.54463E-05,-0.000225723,0.582206123,0.229697332,0.001338616
0.002852014,0.0027014,0.002935452,3.85485E-05,-1.99009E-05,-0.000220401,0.582206195,0.229697286,0.00133817
0.002606661,0.002560352,0.003475168,4.40052E-05,-1.46407E-05,-0.000213981,0.582206277,0.229697252,0.001337735
0.002366305,0.00242288,0.003994236,4.89751E-05,-9.65953E-06,-0.000206501,0.582206371,0.229697228,0.001337314
0.00213276,0.002290059,0.004488287,5.34704E-05,-4.94917E-06,-0.000198004,0.582206473,0.229697213,0.001336909
0.001907589,0.002162809,0.004953183,5.75062E-05,-4.99295E-07,-0.000188547,0.582206584,0.229697208,0.001336522
0.001692097,0.002041892,0.005385067,6.11007E-05,3.70207E-06,-0.000178192,0.582206703,0.229697211,0.001336155
0.001487323,0.001927907,0.005780422,6.42746E-05,7.66827E-06,-0.000167007,0.582206829,0.229697223,0.001335809
0.001294035,0.001821294,0.006136121,6.705E-05,1.14137E-05,-0.00015507,0.58220696,0.229697242,0.001335487
0.001112735,0.001722346,0.00644946,6.94507E-05,1.49535E-05,-0.000142463,0.582207097,0.229697268,0.001335189
0.000943663,0.001631216,0.006718192,7.1501E-05,1.83031E-05,-0.000129272,0.582207238,0.229697302,0.001334917
0.000786812,0.001547933,0.006940544,7.32254E-05,2.14783E-05,-0.00011559,0.582207383,0.229697342,0.001334672
0.000641949,0.001472415,0.007115234,7.46482E-05,2.44948E-05,-0.00010151,0.582207531,0.229697388,0.001334454
0.000508643,0.001404484,0.007241471,7.57932E-05,2.7368E-05,-8.7129E-05,0.582207682,0.22969744,0.001334266
0.000386283,0.00134387,0.007318957,7.66828E-05,3.01127E-05,-7.25442E-05,0.582207834,0.229697497,0.001334106
0.000274112,0.001290219,0.007347888,7.73383E-05,3.27435E-05,-5.78532E-05,0.582207988,0.22969756,0.001333975
0.000171243,0.001243089,0.007328947,7.77792E-05,3.52736E-05,-4.31526E-05,0.582208144,0.229697628,0.001333874
7.66876E-05,0.001201953,0.007263294,7.80233E-05,3.77158E-05,-2.85374E-05,0.582208299,0.229697701,0.001333803
-1.06245E-05,0.001166192,0.007152558,7.8086E-05,4.00814E-05,-1.40994E-05,0.582208456,0.229697779,0.00133376
-9.18225E-05,0.001135097,0.006998818,7.79808E-05,4.23806E-05,7.28584E-08,0.582208612,0.229697861,0.001333746
-0.000168072,0.001107864,0.00680459,7.77187E-05,4.46218E-05,1.38958E-05,0.582208768,0.229697949,0.001333761
-0.000240558,0.001083597,0.006572796,7.73085E-05,4.6812E-05,2.72912E-05,0.582208923,0.22969804,0.001333802
-0.000310461,0.001061309,0.006306738,7.67565E-05,4.89562E-05,4.0187E-05,0.582209077,0.229698136,0.00133387
-0.000378949,0.001039919,0.006010056,7.60666E-05,5.10573E-05,5.25182E-05,0.58220923,0.229698236,0.001333963
-0.000447152,0.001018272,0.005686672,7.52407E-05,5.31159E-05,6.42272E-05,0.582209381,0.22969834,0.00133408
-0.000516155,0.000995143,0.005340733,7.4278E-05,5.51304E-05,7.52649E-05,0.582209531,0.229698448,0.00133422
-0.000586971,0.000969267,0.004976533,7.3176E-05,5.70965E-05,8.55902E-05,0.582209678,0.229698561,0.001334381
-0.000660528,0.000939356,0.00459844,7.19301E-05,5.90074E-05,9.5171E-05,0.582209823,0.229698677,0.001334562
-0.000737653,0.000904124,0.004210824,7.05339E-05,6.08539E-05,0.000103984,0.582209966,0.229698797,0.001334762
-0.000819049,0.000862301,0.003817996,6.89795E-05,6.26239E-05,0.000112014,0.582210106,0.22969892,0.001334978
-0.00090529,0.00081265,0.003424146,6.72577E-05,6.43031E-05,0.000119256,0.582210242,0.229699047,0.00133521
-0.000996802,0.000753973,0.003033304,6.53584E-05,6.58745E-05,0.000125711,0.582210375,0.229699177,0.001335455
-0.001093854,0.000685129,0.002649299,6.32705E-05,6.7319E-05,0.000131389,0.582210503,0.229699311,0.001335712
-0.001196553,0.000605041,0.002275723,6.0983E-05,6.8615E-05,0.000136308,0.582210628,0.229699447,0.001335981
-0.001304832,0.000512715,0.001915908,5.84843E-05,6.97392E-05,0.000140492,0.582210747,0.229699585,0.001336258
-0.001418452,0.000407261,0.001572895,5.57636E-05,7.06659E-05,0.000143972,0.582210862,0.229699726,0.001336543
-0.001537003,0.000287915,0.001249413,5.28105E-05,7.13682E-05,0.000146784,0.58221097,0.229699868,0.001336834
-0.001659913,0.000154068,0.000947864,4.96156E-05,7.18176E-05,0.000148969,0.582211073,0.229700011,0.00133713
-0.001786459,5.29382E-06,0.000670301,4.61709E-05,7.19845E-05,0.000150575,0.582211169,0.229700155,0.001337429
-0.001915774,-0.000158621,0.000418415,4.24698E-05,7.18387E-05,0.000151651,0.582211258,0.229700299,0.001337732
-0.002046858,-0.00033765,0.00019352,3.85078E-05,7.135E-05,0.000152249,0.582211339,0.229700442,0.001338036
-0.002178593,-0.000531508,-3.46152E-06,3.42823E-05,7.04881E-05,0.000152425,0.582211412,0.229700584,0.001338341
-0.002309742,-0.000739629,-0.000172014,2.97934E-05,6.9224E-05,0.000152235,0.582211476,0.229700724,0.001338646
-0.002438969,-0.000961157,-0.000312039,2.50434E-05,6.75296E-05,0.000151737,0.582211531,0.229700861,0.00133895
-0.002564843,-0.001194949,-0.000423869,2.00375E-05,6.53793E-05,0.000150987,0.582211576,0.229700994,0.001339253
-0.002685857,-0.001439573,-0.000508269,1.4784E-05,6.27498E-05,0.000150041,0.582211611,0.229701123,0.001339554
-0.002800449,-0.001693326,-0.000566428,9.29409E-06,5.9621E-05,0.000148954,0.582211635,0.229701245,0.001339853
-0.002907027,-0.001954254,-0.000599937,3.58221E-06,5.59765E-05,0.000147775,0.582211648,0.229701361,0.00134015
-0.003003994,-0.002220187,-0.000610759,-2.33402E-06,5.1804E-05,0.000146554,0.582211649,0.229701469,0.001340444
-0.003089776,-0.002488765,-0.000601193,-8.43377E-06,4.70958E-05,0.000145332,0.582211639,0.229701568,0.001340736
-0.003162846,-0.002757475,-0.000573826,-1.46931E-05,4.1849E-05,0.000144149,0.582211616,0.229701658,0.001341025
-0.003221745,-0.003023684,-0.000531486,-2.10852E-05,3.60659E-05,0.000143037,0.58221158,0.229701736,0.001341312
-0.003265103,-0.003284667,-0.000477202,-2.75801E-05,2.97542E-05,0.000142023,0.582211531,0.229701802,0.001341597
-0.00329166,-0.003537641,-0.000414152,-3.41456E-05,2.29272E-05,0.000141128,0.58221147,0.229701855,0.001341881
-0.003300277,-0.003779801,-0.000345618,-4.07467E-05,1.56037E-05,0.000140367,0.582211395,0.229701894,0.001342162
-0.003289957,-0.004008352,-0.000274938,-4.73467E-05,7.808E-06,0.000139746,0.582211307,0.229701917,0.001342442
-0.003259855,-0.00422055,-0.00020545,-5.39066E-05,-4.29754E-07,0.000139267,0.582211205,0.229701925,0.001342721
-0.003209293,-0.004413742,-0.000140444,-6.03861E-05,-9.0742E-06,0.000138924,0.582211091,0.229701916,0.001342999
-0.003137769,-0.004585393,-8.31104E-05,-6.67437E-05,-1.80847E-05,0.000138705,0.582210964,0.229701889,0.001343277
-0.003044967,-0.004733128,-3.64901E-05,-7.29372E-05,-2.74158E-05,0.000138592,0.582210824,0.229701843,0.001343554
-0.002930763,-0.004854758,-3.42877E-06,-7.89236E-05,-3.70172E-05,0.000138559,0.582210672,0.229701779,0.001343831
-0.002795238,-0.004948303,1.34713E-05,-8.46602E-05,-4.68348E-05,0.000138578,0.582210508,0.229701695,0.001344108
-0.002638681,-0.005012018,1.18955E-05,-9.01046E-05,-5.68104E-05,0.000138613,0.582210333,0.229701592,0.001344385
-0.002461599,-0.005044413,-1.01433E-05,-9.52149E-05,-6.68829E-05,0.000138625,0.582210148,0.229701468,0.001344663
-0.002264723,-0.005044268,-5.42715E-05,-9.9951E-05,-7.69881E-05,0.000138572,0.582209953,0.229701324,0.00134494
-0.002049014,-0.005010649,-0.000121729,-0.000104274,-8.70599E-05,0.000138408,0.582209748,0.22970116,0.001345217
-0.001815657,-0.004942912,-0.000213352,-0.000108147,-9.70307E-05,0.000138085,0.582209535,0.229700976,0.001345493
-0.001566061,-0.004840714,-0.000329558,-0.000111536,-0.000106832,0.000137555,0.582209316,0.229700772,0.001345769
-0.001301851,-0.004704009,-0.00047034,-0.000114411,-0.000116394,0.000136767,0.582209089,0.229700548,0.001346044
-0.001024851,-0.004533051,-0.000635264,-0.000116744,-0.000125648,0.000135674,0.582208858,0.229700306,0.001346316
-0.000737068,-0.004328393,-0.000823472,-0.000118511,-0.000134526,0.000134226,0.582208622,0.229700046,0.001346586
-0.000440671,-0.004090884,-0.001033685,-0.000119692,-0.000142961,0.00013238,0.582208384,0.229699768,0.001346853
-0.000137968,-0.003821673,-0.001264213,-0.000120273,-0.000150889,0.000130091,0.582208144,0.229699474,0.001347116
0.00016862,-0.003522197,-0.001512969,-0.000120244,-0.000158248,0.000127323,0.582207903,0.229699165,0.001347374
0.000476587,-0.00319418,-0.001777492,-0.000119599,-0.000164978,0.00012404,0.582207663,0.229698841,0.001347625
0.000783371,-0.00283962,-0.002054986,-0.000118338,-0.000171025,0.000120213,0.582207424,0.229698505,0.00134787
0.00108639,-0.002460779,-0.002342361,-0.000116465,-0.000176337,0.00011582,0.582207189,0.229698157,0.001348106
0.001383078,-0.00206016,-0.002636292,-0.000113992,-0.000180868,0.000110843,0.582206958,0.229697799,0.001348333
0.001670917,-0.001640492,-0.002933278,-0.000110933,-0.000184577,0.000105274,0.582206733,0.229697433,0.001348549
0.001947471,-0.001204703,-0.003229704,-0.000107308,-0.00018743,9.91103E-05,0.582206515,0.229697061,0.001348754
0.002210415,-0.00075589,-0.003521894,-0.000103143,-0.000189396,9.23556E-05,0.582206304,0.229696684,0.001348946
0.00245755,-0.000297289,-0.003806174,-9.84668E-05,-0.000190453,8.50227E-05,0.582206102,0.229696303,0.001349124
0.00268683,0.000167771,-0.004078934,-9.3313E-05,-0.000190585,7.71309E-05,0.58220591,0.229695922,0.001349286
0.002896376,0.0006359,-0.004336683,-8.77195E-05,-0.000189782,6.8707E-05,0.582205729,0.229695541,0.001349432
0.003084491,0.001103696,-0.004576111,-8.17275E-05,-0.000188042,5.97842E-05,0.582205559,0.229695163,0.001349561
0.003249679,0.001567784,-0.004794141,-7.53815E-05,-0.000185367,5.04025E-05,0.582205402,0.229694789,0.001349671
0.003390657,0.002024856,-0.004987971,-6.87288E-05,-0.00018177,4.06077E-05,0.582205258,0.229694421,0.001349762
0.003506368,0.002471698,-0.005155107,-6.18189E-05,-0.000177268,3.04506E-05,0.582205127,0.229694062,0.001349834
0.003595987,0.002905216,-0.005293383,-5.47033E-05,-0.000171884,1.99872E-05,0.58220501,0.229693712,0.001349884
0.003658928,0.003322448,-0.005400976,-4.74349E-05,-0.000165647,9.27711E-06,0.582204908,0.229693374,0.001349914
0.003694841,0.003720569,-0.005476419,-4.00676E-05,-0.000158594,-1.61668E-06,0.582204821,0.22969305,0.001349921
0.003703609,0.004096897,-0.0055186,-3.26556E-05,-0.000150765,-1.26286E-05,0.582204748,0.22969274,0.001349907
0.003685348,0.004448902,-0.005526761,-2.52531E-05,-0.000142206,-2.36911E-05,0.58220469,0.229692447,0.001349871
0.003640403,0.004774208,-0.005500492,-1.79142E-05,-0.000132969,-3.47356E-05,0.582204647,0.229692171,0.001349812
0.003569346,0.0050706,-0.005439715,-1.06915E-05,-0.000123109,-4.5693E-05,0.582204618,0.229691915,0.001349732
0.003472972,0.005336038,-0.005344668,-3.63678E-06,-0.000112687,-5.64945E-05,0.582204604,0.229691679,0.00134963
0.003352293,0.00556867,-0.0052159,3.20036E-06,-0.000101765,-6.70717E-05,0.582204604,0.229691464,0.001349506
0.003208534,0.005766858,-0.005054253,9.7724E-06,-9.04121E-05,-7.73581E-05,0.582204617,0.229691272,0.001349361
0.003043125,0.005929214,-0.004860869,1.60345E-05,-7.86978E-05,-8.72887E-05,0.582204643,0.229691102,0.001349196
0.002857693,0.006054639,-0.004637181,2.19449E-05,-6.66953E-05,-9.68015E-05,0.582204681,0.229690957,0.001349012
0.002654052,0.00614236,-0.00438491,2.74653E-05,-5.44793E-05,-0.000105837,0.582204731,0.229690836,0.001348809
0.002434184,0.006191967,-0.004106054,3.25611E-05,-4.21258E-05,-0.000114341,0.582204791,0.229690739,0.001348589
0.002200224,0.006203439,-0.003802868,3.7202E-05,-2.97114E-05,-0.000122262,0.582204861,0.229690667,0.001348352
0.001954427,0.00617716,-0.00347784,4.1362E-05,-1.73121E-05,-0.000129553,0.58220494,0.22969062,0.0013481
0.001699147,0.006113922,-0.003133656,4.50197E-05,-5.00277E-06,-0.000136173,0.582205026,0.229690598,0.001347834
0.001436807,0.00601491,-0.002773167,4.81586E-05,7.1436E-06,-0.000142087,0.58220512,0.2296906,0.001347555
0.001169875,0.00588168,-0.002399344,5.07669E-05,1.90569E-05,-0.000147266,0.582205219,0.229690626,0.001347265
0.000900839,0.005716121,-0.00201523,5.28381E-05,3.06703E-05,-0.000151685,0.582205323,0.229690676,0.001346966
0.000632187,0.005520418,-0.001623894,5.43703E-05,4.19214E-05,-0.000155327,0.58220543,0.229690749,0.001346659
0.000366393,0.005297008,-0.001228388,5.53668E-05,5.2752E-05,-0.00015818,0.58220554,0.229690844,0.001346345
0.000105891,0.005048547,-0.000831705,5.58359E-05,6.31094E-05,-0.00016024,0.582205652,0.22969096,0.001346026
-0.000146933,0.004777872,-0.000436759,5.57904E-05,7.29462E-05,-0.000161507,0.582205764,0.229691096,0.001345704
-0.000389765,0.004487978,-4.63521E-05,5.52481E-05,8.22209E-05,-0.000161987,0.582205875,0.229691252,0.00134538
-0.00062038,0.004181978,0.000336838,5.42313E-05,9.08981E-05,-0.000161692,0.582205985,0.229691425,0.001345056
-0.000836656,0.003863079,0.000710277,5.27666E-05,9.89488E-05,-0.00016064,0.582206092,0.229691615,0.001344733
-0.001036599,0.003534535,0.001071587,5.08847E-05,0.00010635,-0.000158851,0.582206196,0.229691821,0.001344413
-0.001218363,0.003199608,0.001418561,4.86202E-05,0.000113087,-0.000156354,0.582206296,0.229692041,0.001344098
-0.001380263,0.002861516,0.001749168,4.60113E-05,0.000119149,-0.000153177,0.58220639,0.229692273,0.001343788
-0.001520805,0.002523386,0.002061566,4.30992E-05,0.000124533,-0.000149357,0.58220648,0.229692517,0.001343485
-0.001638694,0.002188211,0.002354109,3.9928E-05,0.000129242,-0.000144931,0.582206563,0.229692772,0.00134319
-0.001732862,0.001858798,0.002625354,3.65444E-05,0.000133286,-0.00013994,0.582206639,0.229693034,0.001342905
-0.001802473,0.001537743,0.002874064,3.29966E-05,0.000136678,-0.000134429,0.582206709,0.229693305,0.001342631
-0.001846942,0.001227398,0.003099215,2.93345E-05,0.000139437,-0.000128444,0.582206771,0.229693581,0.001342367
-0.001865939,0.000929855,0.003299991,2.56088E-05,0.000141587,-0.000122033,0.582206826,0.229693862,0.001342117
-0.001859398,0.000646937,0.003475788,2.18707E-05,0.000143156,-0.000115244,0.582206874,0.229694147,0.001341879
-0.001827522,0.000380189,0.003626213,1.81712E-05,0.000144175,-0.000108129,0.582206914,0.229694435,0.001341656
-0.001770789,0.000130884,0.003751084,1.45607E-05,0.000144677,-0.000100739,0.582206946,0.229694724,0.001341447
-0.001689949,-9.9983E-05,0.00385043,1.10881E-05,0.000144698,-9.31251E-05,0.582206972,0.229695014,0.001341253
-0.001586019,-0.000311695,0.003924494,7.80086E-06,0.000144277,-8.53376E-05,0.582206991,0.229695303,0.001341074
-0.001460278,-0.000503812,0.003973739,4.74401E-06,0.000143452,-7.74271E-05,0.582207003,0.229695591,0.001340912
-0.001314252,-0.000676168,0.003998848,1.95975E-06,0.000142262,-6.94426E-05,0.58220701,0.229695877,0.001340765
-0.001149699,-0.000828867,0.004000722,-5.13003E-07,0.000140747,-6.14317E-05,0.582207011,0.22969616,0.001340634
-0.000968585,-0.000962272,0.003980475,-2.63905E-06,0.000138946,-5.34398E-05,0.582207008,0.22969644,0.001340519
-0.000773071,-0.00107699,0.003939419,-4.38734E-06,0.000136898,-4.55098E-05,0.582207,0.229696716,0.00134042
-0.000565482,-0.001173855,0.003879046,-5.73133E-06,0.000134638,-3.76821E-05,0.58220699,0.229696987,0.001340337
-0.000348291,-0.001253907,0.003801008,-6.64927E-06,0.000132202,-2.99936E-05,0.582206978,0.229697254,0.001340269
-0.00012409,-0.001318375,0.003707094,-7.12449E-06,0.000129623,-2.2478E-05,0.582206964,0.229697516,0.001340217
0.000104434,-0.001368652,0.003599207,-7.14563E-06,0.000126929,-1.51652E-05,0.582206949,0.229697773,0.001340179
0.000334528,-0.001406277,0.003479329,-6.70676E-06,0.000124148,-8.08122E-06,0.582206935,0.229698024,0.001340156
0.000563408,-0.001432909,0.003349499,-5.80752E-06,0.000121304,-1.24793E-06,0.582206922,0.229698269,0.001340147
0.000788287,-0.001450298,0.00321177,-4.45313E-06,0.000118417,5.31677E-06,0.582206912,0.229698509,0.001340151
0.001006423,-0.001460259,0.003068184,-2.65437E-06,0.000115503,1.15992E-05,0.582206904,0.229698743,0.001340168
0.001215146,-0.001464636,0.002920728,-4.27436E-07,0.000112575,1.75895E-05,0.582206901,0.229698971,0.001340198
0.001411903,-0.00146527,0.002771306,2.20622E-06,0.000109644,2.32821E-05,0.582206903,0.229699193,0.001340239
0.001594293,-0.001463966,0.002621695,5.22018E-06,0.000106714,2.86747E-05,0.58220691,0.22969941,0.001340291
0.001760096,-0.001462447,0.002473511,8.58339E-06,0.000103788,3.37688E-05,0.582206924,0.22969962,0.001340353
0.001907308,-0.001462322,0.002328179,1.22606E-05,0.000100865,3.85688E-05,0.582206944,0.229699825,0.001340426
0.002034167,-0.001465044,0.002186895,1.62126E-05,9.7939E-05,4.30816E-05,0.582206973,0.229700024,0.001340508
0.002139177,-0.001471877,0.002050604,2.03972E-05,9.50044E-05,4.73164E-05,0.582207009,0.229700217,0.001340598
0.002221128,-0.001483864,0.001919983,2.47693E-05,9.20515E-05,5.1284E-05,0.582207054,0.229700404,0.001340697
0.002279105,-0.001501817,0.001795426,2.92817E-05,8.9069E-05,5.49963E-05,0.582207108,0.229700585,0.001340803
0.002312497,-0.001526301,0.001677054,3.38857E-05,8.60442E-05,5.84657E-05,0.582207171,0.22970076,0.001340917
0.00232099,-0.001557635,0.001564725,3.85317E-05,8.29638E-05,6.17045E-05,0.582207244,0.229700929,0.001341037
0.002304569,-0.001595909,0.001458062,4.31697E-05,7.98137E-05,6.47246E-05,0.582207325,0.229701092,0.001341164
0.002263504,-0.001640993,0.001356481,4.775E-05,7.65801E-05,6.75368E-05,0.582207416,0.229701248,0.001341296
0.002198344,-0.001692564,0.001259238,5.22237E-05,7.32497E-05,7.01505E-05,0.582207516,0.229701398,0.001341434
0.002109904,-0.001750123,0.00116546,5.65434E-05,6.98099E-05,7.25737E-05,0.582207625,0.229701541,0.001341577
0.001999259,-0.001813014,0.001074198,6.06633E-05,6.62492E-05,7.48124E-05,0.582207743,0.229701677,0.001341724
0.001867722,-0.001880441,0.000984458,6.45404E-05,6.25578E-05,7.68705E-05,0.582207868,0.229701806,0.001341876
0.001716828,-0.001951483,0.000895243,6.81342E-05,5.87275E-05,7.87502E-05,0.582208001,0.229701928,0.001342032
0.001548306,-0.002025121,0.000805579,7.14077E-05,5.47519E-05,8.04515E-05,0.582208141,0.229702041,0.001342191
0.001364051,-0.002100248,0.000714539,7.43275E-05,5.0627E-05,8.19725E-05,0.582208286,0.229702147,0.001342353
0.001166086,-0.002175699,0.00062126,7.68639E-05,4.63509E-05,8.33096E-05,0.582208438,0.229702244,0.001342519
0.00095653,-0.00225026,0.00052497,7.89918E-05,4.19242E-05,8.44575E-05,0.582208594,0.229702332,0.001342687
0.000737554,-0.002322683,0.000425003,8.069E-05,3.73499E-05,8.54095E-05,0.582208754,0.229702411,0.001342857
0.00051135,-0.002391705,0.000320827,8.1942E-05,3.26334E-05,8.61576E-05,0.582208917,0.229702481,0.001343028
0.000280095,-0.002456059,0.000212053,8.27354E-05,2.7783E-05,8.66928E-05,0.582209082,0.229702542,0.001343201
4.59161E-05,-0.002514491,9.8459E-05,8.30624E-05,2.28092E-05,8.70058E-05,0.582209248,0.229702593,0.001343375
-0.000189131,-0.002565786,-2.00089E-05,8.29191E-05,1.77251E-05,8.70866E-05,0.582209414,0.229702633,0.001343549
-0.000423092,-0.002608783,-0.000143229,8.23059E-05,1.25461E-05,8.69257E-05,0.582209579,0.229702663,0.001343723
-0.000654127,-0.002642402,-0.000270903,8.12267E-05,7.28994E-06,8.65137E-05,0.582209743,0.229702683,0.001343897
-0.000880525,-0.002665667,-0.000402562,7.96894E-05,1.97646E-06,8.58421E-05,0.582209904,0.229702693,0.001344069
-0.001100714,-0.002677722,-0.000537571,7.77046E-05,-3.37273E-06,8.49035E-05,0.582210062,0.229702691,0.00134424
-0.001313259,-0.002677842,-0.000675141,7.52865E-05,-8.73443E-06,8.36918E-05,0.582210215,0.229702679,0.001344409
-0.001516873,-0.002665432,-0.000814353,7.24516E-05,-1.40841E-05,8.22029E-05,0.582210363,0.229702656,0.001344575
-0.001710412,-0.002640016,-0.000954179,6.9219E-05,-1.93962E-05,8.04344E-05,0.582210505,0.229702623,0.001344738
-0.001892879,-0.002601225,-0.001093508,6.561E-05,-2.46442E-05,7.83862E-05,0.58221064,0.229702579,0.001344897
-0.002063413,-0.002548789,-0.001231171,6.16475E-05,-2.98011E-05,7.60604E-05,0.582210767,0.229702524,0.001345051
-0.002221291,-0.002482523,-0.00136596,5.73563E-05,-3.48393E-05,7.34615E-05,0.582210886,0.229702459,0.001345201
-0.002365914,-0.002402336,-0.001496657,5.27623E-05,-3.97311E-05,7.05965E-05,0.582210997,0.229702385,0.001345345
-0.0024968,-0.002308232,-0.001622046,4.78926E-05,-4.44487E-05,6.74749E-05,0.582211097,0.229702301,0.001345483
-0.002613572,-0.002200325,-0.001740941,4.27751E-05,-4.89641E-05,6.41084E-05,0.582211188,0.229702207,0.001345615
-0.002715951,-0.00207885,-0.001852208,3.74384E-05,-5.325E-05,6.05111E-05,0.582211269,0.229702105,0.00134574
-0.002803744,-0.001944176,-0.001954786,3.19113E-05,-5.72795E-05,5.66995E-05,0.582211338,0.229701994,0.001345857
-0.002876839,-0.001796805,-0.002047716,2.62234E-05,-6.10267E-05,5.2692E-05,0.582211396,0.229701876,0.001345967
-0.002935197,-0.001637378,-0.00213016,2.0404E-05,-6.44667E-05,4.85087E-05,0.582211443,0.22970175,0.001346068
-0.002978844,-0.00146666,-0.002201423,1.44826E-05,-6.75762E-05,4.41713E-05,0.582211478,0.229701618,0.001346161
-0.003007876,-0.001285527,-0.002260969,8.4886E-06,-7.03333E-05,3.9703E-05,0.582211501,0.22970148,0.001346245
-0.003022443,-0.00109495,-0.002308431,2.45109E-06,-7.27183E-05,3.51275E-05,0.582211512,0.229701336,0.00134632
-0.003022758,-0.000895973,-0.002343614,-3.60118E-06,-7.47131E-05,3.04693E-05,0.582211511,0.229701189,0.001346385
-0.003009087,-0.000689708,-0.002366498,-9.63994E-06,-7.63022E-05,2.5753E-05,0.582211497,0.229701038,0.001346441
-0.002981749,-0.000477316,-0.002377229,-1.56375E-05,-7.7472E-05,2.10033E-05,0.582211472,0.229700884,0.001346488
-0.002941114,-0.000260008,-0.002376113,-2.15669E-05,-7.82114E-05,1.62441E-05,0.582211435,0.229700728,0.001346525
-0.002887592,-3.90315E-05,-0.002363605,-2.7402E-05,-7.8512E-05,1.14988E-05,0.582211386,0.229700571,0.001346553
-0.002821624,0.000184326,-0.002340297,-3.31173E-05,-7.83676E-05,6.78967E-06,0.582211325,0.229700414,0.001346571
-0.002743669,0.000408743,-0.002306901,-3.86885E-05,-7.77747E-05,2.13762E-06,0.582211253,0.229700257,0.00134658
-0.002654198,0.00063287,-0.002264232,-4.4092E-05,-7.67326E-05,-2.43793E-06,0.58221117,0.229700102,0.00134658
-0.00255369,0.000855328,-0.002213187,-4.93053E-05,-7.52432E-05,-6.9193E-06,0.582211077,0.22969995,0.001346571
-0.002442628,0.001074723,-0.002154721,-5.43067E-05,-7.33113E-05,-1.12907E-05,0.582210973,0.229699802,0.001346552
-0.002321498,0.001289645,-0.002089823,-5.90758E-05,-7.09443E-05,-1.55382E-05,0.58221086,0.229699657,0.001346525
-0.002190785,0.001498675,-0.002019489,-6.35927E-05,-6.81527E-05,-1.965E-05,0.582210737,0.229699518,0.00134649
-0.002050966,0.001700395,-0.001944706,-6.78389E-05,-6.49496E-05,-2.36161E-05,0.582210605,0.229699384,0.001346447
-0.001902508,0.001893398,-0.001866433,-7.17966E-05,-6.13511E-05,-2.74288E-05,0.582210466,0.229699258,0.001346396
-0.001745851,0.002076301,-0.001785602,-7.54489E-05,-5.7376E-05,-3.10819E-05,0.582210318,0.229699139,0.001346337
-0.001581411,0.002247763,-0.001703113,-7.878E-05,-5.30459E-05,-3.45712E-05,0.582210164,0.229699028,0.001346271
-0.001409571,0.002406505,-0.001619845,-8.17746E-05,-4.8385E-05,-3.78943E-05,0.582210003,0.229698927,0.001346199
-0.001230687,0.002551318,-0.001536663,-8.44183E-05,-4.34199E-05,-4.10506E-05,0.582209837,0.229698835,0.00134612
-0.001045096,0.002681087,-0.001454421,-8.66973E-05,-3.81797E-05,-4.4041E-05,0.582209665,0.229698753,0.001346035
-0.000853128,0.002794797,-0.001373963,-8.85987E-05,-3.26956E-05,-4.68683E-05,0.58220949,0.229698682,0.001345944
-0.000655114,0.002891557,-0.001296109,-9.01099E-05,-2.70005E-05,-4.95368E-05,0.582209311,0.229698622,0.001345847
-0.000451408,0.002970611,-0.001221644,-9.12191E-05,-2.11293E-05,-5.20527E-05,0.582209129,0.229698574,0.001345745
-0.000242392,0.003031357,-0.001151295,-9.19155E-05,-1.51181E-05,-5.44234E-05,0.582208946,0.229698538,0.001345639
-2.85034E-05,0.003073358,-0.001085703,-9.21887E-05,-9.0039E-06,-5.66579E-05,0.582208762,0.229698514,0.001345528
0.000189761,0.003096346,-0.0010254,-9.20295E-05,-2.82464E-06,-5.87662E-05,0.582208577,0.229698502,0.001345412
0.000411822,0.00310023,-0.00097079,-9.14297E-05,3.38149E-06,-6.07595E-05,0.582208394,0.229698502,0.001345293
0.000637014,0.003085091,-0.000922133,-9.03822E-05,9.57628E-06,-6.26494E-05,0.582208212,0.229698515,0.001345169
0.000864568,0.00305118,-0.000879541,-8.88816E-05,1.57219E-05,-6.4448E-05,0.582208032,0.229698541,0.001345042
0.00109361,0.002998909,-0.000842965,-8.69239E-05,2.1781E-05,-6.61675E-05,0.582207856,0.229698578,0.001344911
0.001323156,0.002928839,-0.000812194,-8.45072E-05,2.77175E-05,-6.78199E-05,0.582207684,0.229698628,0.001344777
0.001552115,0.002841661,-0.000786845,-8.16313E-05,3.34964E-05,-6.94163E-05,0.582207518,0.229698689,0.00134464
0.001779293,0.002738175,-0.000766364,-7.82987E-05,3.90841E-05,-7.09672E-05,0.582207358,0.229698762,0.0013445
0.002003401,0.002619279,-0.000750036,-7.45141E-05,4.44491E-05,-7.24818E-05,0.582207205,0.229698845,0.001344356
0.002223067,0.002485958,-0.000737001,-7.02851E-05,4.95612E-05,-7.39674E-05,0.58220706,0.22969894,0.00134421
0.002436847,0.002339282,-0.000726289,-6.56219E-05,5.43929E-05,-7.54298E-05,0.582206924,0.229699044,0.00134406
0.00264324,0.002180413,-0.000716849,-6.05377E-05,5.89184E-05,-7.68725E-05,0.582206797,0.229699157,0.001343908
0.002840708,0.002010603,-0.000707598,-5.50489E-05,6.31145E-05,-7.82972E-05,0.582206682,0.229699279,0.001343753
0.003027692,0.001831201,-0.000697453,-4.91749E-05,6.69608E-05,-7.97029E-05,0.582206577,0.22969941,0.001343595
0.003202626,0.001643647,-0.000685366,-4.29381E-05,7.04393E-05,-8.1087E-05,0.582206485,0.229699547,0.001343434
0.003363957,0.001449469,-0.000670355,-3.63644E-05,7.35354E-05,-8.24444E-05,0.582206405,0.229699691,0.001343271
0.003510154,0.001250261,-0.000651524,-2.94823E-05,7.62372E-05,-8.37684E-05,0.582206339,0.229699841,0.001343104
0.003639724,0.001047674,-0.000628079,-2.23238E-05,7.85364E-05,-8.50505E-05,0.582206288,0.229699996,0.001342936
0.003751228,0.000843382,-0.000599338,-1.49234E-05,8.04279E-05,-8.62807E-05,0.58220625,0.229700156,0.001342764
0.003843297,0.000639063,-0.000564742,-7.31884E-06,8.191E-05,-8.74479E-05,0.582206228,0.229700318,0.00134259
0.003914656,0.000436359,-0.000523858,4.49773E-07,8.29842E-05,-8.85397E-05,0.582206221,0.229700483,0.001342414
0.003964139,0.000236856,-0.00047638,8.33978E-06,8.36554E-05,-8.95433E-05,0.58220623,0.22970065,0.001342236
0.003990712,4.20541E-05,-0.000422133,1.63063E-05,8.39316E-05,-9.04452E-05,0.582206254,0.229700818,0.001342056
0.003993484,-0.000146644,-0.000361061,2.43026E-05,8.38236E-05,-9.12318E-05,0.582206295,0.229700986,0.001341874
0.003971724,-0.000327946,-0.000293232,3.22803E-05,8.3345E-05,-9.18895E-05,0.582206351,0.229701153,0.001341691
0.003924878,-0.000500673,-0.000218824,4.01895E-05,8.25118E-05,-9.24047E-05,0.582206424,0.229701319,0.001341507
0.00385258,-0.000663761,-0.000138119,4.79798E-05,8.13423E-05,-9.27647E-05,0.582206512,0.229701483,0.001341322
0.003754669,-0.000816272,-5.14913E-05,5.55998E-05,7.98568E-05,-9.29572E-05,0.582206616,0.229701644,0.001341136
0.003631199,-0.000957388,4.06078E-05,6.29985E-05,7.80772E-05,-9.29707E-05,0.582206735,0.229701803,0.00134095
0.003482454,-0.001086419,0.000137664,7.01246E-05,7.60272E-05,-9.27948E-05,0.582206868,0.229701957,0.001340764
0.003308954,-0.001202803,0.000239109,7.69283E-05,7.37316E-05,-9.24201E-05,0.582207015,0.229702107,0.001340579
0.003111463,-0.001306109,0.000344336,8.33605E-05,7.1216E-05,-9.18383E-05,0.582207176,0.229702252,0.001340394
0.00289099,-0.001396028,0.000452696,8.93741E-05,6.85071E-05,-9.10427E-05,0.582207349,0.229702392,0.001340211
0.002648789,-0.00147237,0.000563517,9.49244E-05,6.56319E-05,-9.00276E-05,0.582207533,0.229702526,0.00134003
0.002386352,-0.001535046,0.000676098,9.99693E-05,6.26176E-05,-8.87887E-05,0.582207728,0.229702654,0.001339851
0.002105402,-0.001584049,0.000789722,0.00010447,5.94917E-05,-8.73232E-05,0.582207933,0.229702776,0.001339675
0.00180788,-0.001619435,0.00090365,0.000108391,5.62814E-05,-8.56298E-05,0.582208146,0.229702892,0.001339502
0.001495929,-0.001641306,0.001017123,0.000111701,5.3014E-05,-8.37086E-05,0.582208367,0.229703001,0.001339332
0.001171876,-0.001649802,0.001129364,0.000114375,4.97162E-05,-8.15613E-05,0.582208593,0.229703104,0.001339167
0.000838213,-0.001645095,0.001239574,0.000116389,4.64148E-05,-7.91911E-05,0.582208824,0.2297032,0.001339006
0.00049757,-0.001627393,0.001346929,0.000117727,4.31358E-05,-7.6603E-05,0.582209058,0.22970329,0.00133885
0.000152694,-0.001596937,0.001450575,0.000118379,3.99052E-05,-7.38034E-05,0.582209295,0.229703373,0.0013387
-0.000193581,-0.001554013,0.001549625,0.000118338,3.67481E-05,-7.08007E-05,0.582209532,0.229703449,0.001338555
-0.000538359,-0.001498946,0.001643161,0.000117605,3.36891E-05,-6.76049E-05,0.582209768,0.22970352,0.001338417
-0.000878705,-0.001432113,0.001730234,0.000116185,3.07523E-05,-6.4228E-05,0.582210002,0.229703584,0.001338285
-0.001211679,-0.001353938,0.001809879,0.00011409,2.79607E-05,-6.0684E-05,0.582210233,0.229703643,0.00133816
-0.001534363,-0.001264907,0.001881124,0.000111338,2.53365E-05,-5.69885E-05,0.582210459,0.229703696,0.001338042
-0.001843896,-0.001165567,0.001943008,0.000107953,2.29011E-05,-5.31595E-05,0.582210678,0.229703744,0.001337932
-0.002137502,-0.001056527,0.001994586,0.000103962,2.06743E-05,-4.92165E-05,0.582210891,0.229703788,0.001337829
-0.002412528,-0.000938453,0.002034951,9.94025E-05,1.8675E-05,-4.51811E-05,0.582211094,0.229703827,0.001337735
-0.002666473,-0.000812054,0.002063239,9.43124E-05,1.69205E-05,-4.10767E-05,0.582211288,0.229703862,0.001337649
-0.002897018,-0.000678077,0.002078654,8.87366E-05,1.54267E-05,-3.69282E-05,0.582211471,0.229703894,0.001337571
-0.003102054,-0.000537294,0.002080478,8.27243E-05,1.42082E-05,-3.27621E-05,0.582211643,0.229703924,0.001337501
-0.003279703,-0.000390502,0.002068092,7.63284E-05,1.32776E-05,-2.86062E-05,0.582211802,0.229703951,0.00133744
-0.00342834,-0.000238518,0.002040982,6.96055E-05,1.26462E-05,-2.44897E-05,0.582211948,0.229703977,0.001337386
-0.003546614,-8.21834E-05,0.001998754,6.2615E-05,1.23235E-05,-2.04423E-05,0.582212081,0.229704002,0.001337342
-0.003633457,7.76396E-05,0.001941136,5.5419E-05,1.23174E-05,-1.64947E-05,0.582212199,0.229704026,0.001337305
-0.003688108,0.000240068,0.001867979,4.80812E-05,1.26341E-05,-1.26778E-05,0.582212302,0.229704051,0.001337276
-0.003710114,0.000404198,0.001779261,4.06666E-05,1.32777E-05,-9.02277E-06,0.582212391,0.229704077,0.001337254
-0.003699344,0.000569111,0.00167509,3.32408E-05,1.42508E-05,-5.56073E-06,0.582212465,0.229704104,0.001337239
-0.003655989,0.000733866,0.001555703,2.58692E-05,1.55541E-05,-2.32241E-06,0.582212524,0.229704134,0.001337232
-0.003580552,0.000897508,0.001421476,1.86168E-05,1.71863E-05,6.62081E-07,0.582212569,0.229704166,0.00133723
-0.003473849,0.001059071,0.00127293,1.1547E-05,1.91442E-05,3.3635E-06,0.582212599,0.229704203,0.001337234
-0.003336989,0.001217583,0.001110735,4.72141E-06,2.14226E-05,5.7538E-06,0.582212615,0.229704243,0.001337244
-0.003171355,0.001372077,0.000935709,-1.80094E-06,2.40145E-05,7.80644E-06,0.582212618,0.229704288,0.001337257
-0.002978589,0.001521592,0.000748816,-7.96401E-06,2.69109E-05,9.49664E-06,0.582212608,0.229704339,0.001337275
-0.002760565,0.001665181,0.000551169,-1.37153E-05,3.01009E-05,1.08017E-05,0.582212586,0.229704396,0.001337295
-0.002519367,0.001801913,0.000344016,-1.90063E-05,3.35716E-05,1.17013E-05,0.582212553,0.22970446,0.001337318
-0.002257266,0.001930881,0.00012874,-2.37928E-05,3.73085E-05,1.21778E-05,0.58221251,0.22970453,0.001337342
-0.001976696,0.002051202,-9.31587E-05,-2.80353E-05,4.12951E-05,1.22163E-05,0.582212458,0.229704609,0.001337367
-0.001680226,0.002162025,-0.000320076,-3.16995E-05,4.55133E-05,1.18051E-05,0.582212398,0.229704695,0.001337391
-0.001370534,0.002262536,-0.000550317,-3.47562E-05,4.99432E-05,1.0936E-05,0.582212331,0.229704791,0.001337414
-0.001050381,0.002351962,-0.000782108,-3.71817E-05,5.45635E-05,9.60387E-06,0.582212259,0.229704895,0.001337435
-0.000722581,0.002429575,-0.001013614,-3.89578E-05,5.93511E-05,7.80754E-06,0.582212182,0.229705009,0.001337452
-0.000389981,0.002494697,-0.001242947,-4.0072E-05,6.42818E-05,5.54941E-06,0.582212103,0.229705133,0.001337466
-5.54409E-05,0.002546698,-0.001468184,-4.05177E-05,6.93299E-05,2.83575E-06,0.582212022,0.229705266,0.001337475
0.000278188,0.002584994,-0.001687384,-4.02938E-05,7.44686E-05,-3.23325E-07,0.582211941,0.22970541,0.001337477
0.000608079,0.002609041,-0.001898598,-3.94049E-05,7.96699E-05,-3.91379E-06,0.582211861,0.229705564,0.001337473
0.000931451,0.002618329,-0.002099889,-3.78615E-05,8.49047E-05,-7.91772E-06,0.582211783,0.229705729,0.001337462
0.00124558,0.002612385,-0.002289348,-3.56791E-05,9.01432E-05,-1.23133E-05,0.582211709,0.229705904,0.001337442
0.001547813,0.002590774,-0.00246511,-3.28791E-05,9.53543E-05,-1.70751E-05,0.58221164,0.229706089,0.001337412
0.001835583,0.002553102,-0.002625378,-2.94879E-05,0.000100506,-2.21738E-05,0.582211578,0.229706285,0.001337373
0.002106416,0.002499021,-0.002768436,-2.55368E-05,0.000105567,-2.75766E-05,0.582211522,0.229706491,0.001337324
0.002357941,0.002428234,-0.00289267,-2.10622E-05,0.000110502,-3.32475E-05,0.582211475,0.229706707,0.001337263
0.002587901,0.002340491,-0.002996578,-1.6105E-05,0.00011528,-3.91473E-05,0.582211438,0.229706933,0.001337191
0.002794171,0.002235601,-0.003078778,-1.07106E-05,0.000119864,-4.52338E-05,0.582211411,0.229707168,0.001337106
0.002974767,0.002113433,-0.003138022,-4.92835E-06,0.000124222,-5.14624E-05,0.582211395,0.229707413,0.00133701
0.003127867,0.001973937,-0.003173197,1.18846E-06,0.000128318,-5.77859E-05,0.582211391,0.229707665,0.001336901
0.003251831,0.001817147,-0.003183335,7.58312E-06,0.000132118,-6.41552E-05,0.5822114,0.229707926,0.001336779
0.003345219,0.001643203,-0.003167624,1.41958E-05,0.000135587,-7.05193E-05,0.582211422,0.229708194,0.001336644
0.003406815,0.001452366,-0.003125424,2.0964E-05,0.000138691,-7.68257E-05,0.582211457,0.229708468,0.001336497
0.003435642,0.001245032,-0.003056285,2.7823E-05,0.000141396,-8.3021E-05,0.582211506,0.229708749,0.001336337
0.003430975,0.001021755,-0.002959974,3.47066E-05,0.000143671,-8.90508E-05,0.582211568,0.229709034,0.001336165
0.003392362,0.000783261,-0.002836501,4.15469E-05,0.000145483,-9.48609E-05,0.582211644,0.229709323,0.00133598
0.003319636,0.000530464,-0.002686141,4.8276E-05,0.000146804,-0.000100397,0.582211734,0.229709616,0.001335785
0.003212928,0.000264473,-0.00250945,5.48255E-05,0.000147605,-0.000105605,0.582211837,0.229709911,0.001335579
0.003072685,-1.34081E-05,-0.002307278,6.11277E-05,0.000147862,-0.000110435,0.582211954,0.229710206,0.001335363
0.00289967,-0.000301685,-0.002080758,6.71162E-05,0.000147551,-0.000114835,0.582212082,0.229710502,0.001335137
0.002694966,-0.00059869,-0.001831301,7.27264E-05,0.000146655,-0.000118758,0.582212222,0.229710796,0.001334903
0.002459967,-0.0009026,-0.001560573,7.78961E-05,0.000145157,-0.00012216,0.582212373,0.229711089,0.001334662
0.002196367,-0.00121146,-0.001270479,8.25663E-05,0.000143044,-0.000125,0.582212534,0.229711377,0.001334415
0.001906145,-0.001523199,-0.000963139,8.66816E-05,0.000140311,-0.000127242,0.582212703,0.229711661,0.001334162
0.001591551,-0.001835659,-0.000640871,9.01908E-05,0.000136952,-0.000128853,0.58221288,0.229711938,0.001333906
0.001255081,-0.002146622,-0.000306166,9.30478E-05,0.000132968,-0.000129805,0.582213064,0.229712209,0.001333647
0.000899457,-0.002453842,3.83398E-05,9.52112E-05,0.000128365,-0.000130077,0.582213253,0.22971247,0.001333387
0.000527603,-0.002755073,0.000389884,9.66456E-05,0.000123153,-0.000129652,0.582213445,0.229712722,0.001333126
0.000142621,-0.003048104,0.000745607,9.73216E-05,0.000117345,-0.000128518,0.582213639,0.229712963,0.001332868
-0.000252236,-0.003330784,0.001102584,9.72161E-05,0.00011096,-0.000126669,0.582213834,0.229713191,0.001332612
-0.000653593,-0.003601052,0.001457849,9.63126E-05,0.000104022,-0.000124107,0.582214028,0.229713407,0.001332361
-0.001057974,-0.003856957,0.00180843,9.46017E-05,9.65561E-05,-0.000120838,0.582214219,0.229713607,0.001332116
-0.001461838,-0.004096684,0.002151375,9.20807E-05,8.8594E-05,-0.000116874,0.582214406,0.229713793,0.001331878
-0.001861602,-0.004318568,0.002483778,8.87544E-05,8.01694E-05,-0.000112232,0.582214588,0.229713962,0.001331648
-0.002253675,-0.004521106,0.002802809,8.46343E-05,7.13197E-05,-0.000106938,0.582214761,0.229714114,0.001331429
-0.002634489,-0.004702961,0.003105733,7.97397E-05,6.2085E-05,-0.000101021,0.582214926,0.229714247,0.001331221
-0.003000536,-0.004862967,0.003389944,7.40964E-05,5.25078E-05,-9.45156E-05,0.58221508,0.229714362,0.001331025
-0.003348406,-0.005000122,0.003652983,6.77375E-05,4.26331E-05,-8.74614E-05,0.582215223,0.229714457,0.001330843
-0.003674828,-0.005113588,0.003892565,6.07028E-05,3.25074E-05,-7.99036E-05,0.582215351,0.229714532,0.001330675
-0.00397671,-0.005202685,0.004106599,5.30382E-05,2.21787E-05,-7.18912E-05,0.582215465,0.229714587,0.001330523
-0.004251182,-0.00526688,0.004293209,4.47959E-05,1.16966E-05,-6.34772E-05,0.582215563,0.229714621,0.001330387
-0.004495634,-0.00530578,0.004450755,3.60335E-05,1.11122E-06,-5.47183E-05,0.582215645,0.229714634,0.001330269
-0.004707756,-0.005319119,0.004577853,2.68134E-05,-9.5265E-06,-4.56742E-05,0.582215708,0.229714626,0.001330169
-0.004885572,-0.005306747,0.004673391,1.72024E-05,-2.01653E-05,-3.64069E-05,0.582215752,0.229714596,0.001330086
-0.005027461,-0.005268618,0.004736552,7.27109E-06,-3.07535E-05,-2.69806E-05,0.582215776,0.229714545,0.001330023
-0.005132185,-0.00520478,0.00476682,-2.9074E-06,-4.12397E-05,-1.74607E-05,0.582215781,0.229714473,0.001329978
-0.005198896,-0.005115372,0.004764001,-1.32576E-05,-5.15726E-05,-7.91336E-06,0.582215765,0.22971438,0.001329953
-0.005227149,-0.005000624,0.00472822,-2.3703E-05,-6.17012E-05,1.59527E-06,0.582215728,0.229714267,0.001329947
-0.005216898,-0.004860865,0.004659925,-3.41662E-05,-7.15751E-05,1.09995E-05,0.58221567,0.229714133,0.001329959
-0.005168504,-0.004696524,0.00455988,-4.45706E-05,-8.11447E-05,2.0235E-05,0.582215591,0.22971398,0.001329991
-0.005082719,-0.004508144,0.004429148,-5.48403E-05,-9.03612E-05,2.9239E-05,0.582215492,0.229713809,0.00133004
-0.004960679,-0.004296388,0.004269077,-6.49015E-05,-9.91772E-05,3.79516E-05,0.582215372,0.229713619,0.001330108
-0.004803882,-0.004062045,0.004081288,-7.4683E-05,-0.000107547,4.63154E-05,0.582215232,0.229713412,0.001330192
-0.004614172,-0.003806038,0.003867651,-8.4117E-05,-0.000115425,5.42767E-05,0.582215073,0.229713189,0.001330293
-0.004393708,-0.003529437,0.003630264,-9.31397E-05,-0.000122771,6.1786E-05,0.582214896,0.22971295,0.001330409
-0.004144943,-0.003233453,0.003371433,-0.000101692,-0.000129543,6.87978E-05,0.582214701,0.229712698,0.00133054
-0.003870585,-0.002919443,0.003093645,-0.000109719,-0.000135705,7.52717E-05,0.582214489,0.229712432,0.001330685
-0.003573573,-0.002588905,0.002799529,-0.000117174,-0.000141221,8.11724E-05,0.582214262,0.229712155,0.001330841
-0.003257039,-0.00224346,0.002491824,-0.000124014,-0.00014606,8.64698E-05,0.58221402,0.229711867,0.001331009
-0.002924276,-0.001884849,0.00217334,-0.000130202,-0.000150195,9.11396E-05,0.582213766,0.22971157,0.001331187
-0.002578696,-0.001514911,0.001846921,-0.000135711,-0.0001536,9.51632E-05,0.582213499,0.229711266,0.001331374
-0.002223794,-0.001135581,0.001515411,-0.000140517,-0.000156254,9.85273E-05,0.582213223,0.229710956,0.001331568
-0.001863106,-0.000748879,0.001181632,-0.000144606,-0.000158142,0.000101225,0.582212937,0.229710641,0.001331768
-0.001500171,-0.000356898,0.000848353,-0.00014797,-0.00015925,0.000103254,0.582212644,0.229710324,0.001331973
-0.001138489,3.81985E-05,0.000518274,-0.000150607,-0.00015957,0.000104618,0.582212345,0.229710004,0.001332181
-0.000781483,0.000434191,0.000193998,-0.000152523,-0.000159097,0.000105327,0.582212042,0.229709685,0.001332391
-0.000432465,0.000828816,-0.000121987,-0.000153733,-0.000157833,0.000105394,0.582211735,0.229709368,0.001332602
-9.4596E-05,0.00121978,-0.000427336,-0.000154253,-0.000155782,0.000104839,0.582211427,0.229709054,0.001332813
0.000229144,0.001604778,-0.000719862,-0.000154111,-0.000152954,0.000103685,0.582211118,0.229708745,0.001333022
0.000535991,0.001981512,-0.000997563,-0.000153337,-0.000149363,0.00010196,0.582210811,0.229708442,0.001333227
0.000823424,0.002347712,-0.001258628,-0.000151967,-0.000145028,9.96946E-05,0.582210505,0.229708147,0.001333429
0.001089196,0.00270115,-0.001501452,-0.000150043,-0.000139972,9.6925E-05,0.582210203,0.229707862,0.001333626
0.001331352,0.003039653,-0.001724642,-0.00014761,-0.000134223,9.36888E-05,0.582209905,0.229707587,0.001333817
0.001548255,0.003361116,-0.001927023,-0.000144718,-0.000127813,9.00265E-05,0.582209612,0.229707325,0.001334001
0.001738608,0.003663504,-0.002107649,-0.000141417,-0.000120779,8.59807E-05,0.582209326,0.229707076,0.001334177
0.001901467,0.003944872,-0.002265813,-0.000137763,-0.000113159,8.15959E-05,0.582209047,0.229706842,0.001334345
0.002036257,0.004203372,-0.002401062,-0.000133811,-0.000104999,7.69175E-05,0.582208775,0.229706624,0.001334504
0.002142773,0.004437273,-0.002513202,-0.000129618,-9.63458E-05,7.19916E-05,0.582208511,0.229706422,0.001334653
0.002221185,0.004644988,-0.002602297,-0.00012524,-8.72501E-05,6.68647E-05,0.582208256,0.229706238,0.001334792
0.002272025,0.00482509,-0.002668667,-0.000120733,-7.77659E-05,6.15824E-05,0.58220801,0.229706073,0.00133492
0.002296174,0.004976348,-0.002712873,-0.000116152,-6.79497E-05,5.619E-05,0.582207773,0.229705927,0.001335038
0.002294843,0.00509774,-0.00273571,-0.000111549,-5.78605E-05,5.0731E-05,0.582207546,0.229705801,0.001335145
0.002269548,0.005188475,-0.002738187,-0.000106973,-4.75588E-05,4.52472E-05,0.582207327,0.229705696,0.001335241
0.00222209,0.005247999,-0.002721511,-0.000102471,-3.71066E-05,3.97782E-05,0.582207118,0.229705611,0.001335326
0.002154527,0.005276006,-0.002687073,-9.80844E-05,-2.65668E-05,3.43611E-05,0.582206917,0.229705547,0.0013354
0.002069144,0.00527243,-0.00263642,-9.38525E-05,-1.60025E-05,2.90299E-05,0.582206725,0.229705505,0.001335463
0.001968418,0.005237439,-0.002571237,-8.98079E-05,-5.47703E-06,2.38154E-05,0.582206542,0.229705483,0.001335516
0.001854978,0.005171431,-0.002493318,-8.59788E-05,4.94722E-06,1.8745E-05,0.582206366,0.229705483,0.001335559
0.001731554,0.00507502,-0.002404546,-8.2388E-05,1.52087E-05,1.38422E-05,0.582206198,0.229705503,0.001335591
0.001600923,0.004949036,-0.002306864,-7.90526E-05,2.52473E-05,9.12678E-06,0.582206037,0.229705544,0.001335614
0.001465857,0.004794509,-0.002202247,-7.59843E-05,3.50048E-05,4.6147E-06,0.582205882,0.229705604,0.001335628
0.001329068,0.004612664,-0.002092671,-7.31891E-05,4.44253E-05,3.17793E-07,0.582205733,0.229705684,0.001335632
0.001193161,0.004404901,-0.001980082,-7.0668E-05,5.34555E-05,-3.75599E-06,0.582205589,0.229705782,0.001335629
0.001060585,0.004172776,-0.001866352,-6.84165E-05,6.20449E-05,-7.60253E-06,0.58220545,0.229705897,0.001335617
0.000933601,0.003917978,-0.00175325,-6.64256E-05,7.01466E-05,-1.12214E-05,0.582205315,0.22970603,0.001335598
0.000814255,0.003642305,-0.001642406,-6.46821E-05,7.77168E-05,-1.46155E-05,0.582205184,0.229706178,0.001335572
0.000704349,0.003347637,-0.001535282,-6.31686E-05,8.47158E-05,-1.7791E-05,0.582205057,0.229706341,0.00133554
0.000605434,0.003035912,-0.001433149,-6.18647E-05,9.11074E-05,-2.07567E-05,0.582204932,0.229706517,0.001335501
0.000518794,0.00270911,-0.001337064,-6.07469E-05,9.68595E-05,-2.35236E-05,0.582204809,0.229706705,0.001335457
0.000445438,0.002369232,-0.001247865,-5.97895E-05,0.000101944,-2.61049E-05,0.582204689,0.229706904,0.001335407
0.000386102,0.002018303,-0.001166165,-5.89651E-05,0.000106336,-2.85151E-05,0.58220457,0.229707113,0.001335352
0.000341247,0.001658357,-0.001092353,-5.82451E-05,0.000110017,-3.07696E-05,0.582204453,0.22970733,0.001335293
0.000311067,0.001291446,-0.001026604,-5.76002E-05,0.00011297,-3.28845E-05,0.582204337,0.229707553,0.001335229
0.0002955,0.000919626,-0.000968885,-5.70008E-05,0.000115183,-3.4876E-05,0.582204222,0.229707782,0.001335162
0.000294235,0.000544961,-0.000918959,-5.64182E-05,0.000116648,-3.676E-05,0.582204109,0.229708014,0.00133509
0.000306732,0.000169505,-0.000876394,-5.58239E-05,0.000117363,-3.85518E-05,0.582203997,0.229708248,0.001335015
0.000332235,-0.000204702,-0.000840564,-5.51912E-05,0.000117326,-4.02656E-05,0.582203886,0.229708483,0.001334936
0.000369788,-0.000575653,-0.000810663,-5.4495E-05,0.000116544,-4.19141E-05,0.582203776,0.229708717,0.001334853
0.000418262,-0.000941381,-0.00078572,-5.37121E-05,0.000115024,-4.35083E-05,0.582203668,0.229708949,0.001334768
0.000476378,-0.001299977,-0.000764612,-5.28219E-05,0.000112778,-4.5057E-05,0.582203561,0.229709178,0.001334679
0.000542739,-0.001649599,-0.000746097,-5.18066E-05,0.000109824,-4.65667E-05,0.582203456,0.229709401,0.001334588
0.000615856,-0.001988485,-0.000728837,-5.0651E-05,0.00010618,-4.80414E-05,0.582203354,0.229709617,0.001334493
0.000694175,-0.002314965,-0.00071143,-4.93431E-05,0.00010187,-4.94821E-05,0.582203254,0.229709825,0.001334396
0.000776104,-0.002627469,-0.000692436,-4.78743E-05,9.69201E-05,-5.08871E-05,0.582203157,0.229710024,0.001334295
0.000860032,-0.002924538,-0.000670408,-4.62387E-05,9.136E-05,-5.22518E-05,0.582203062,0.229710213,0.001334192
0.000944347,-0.003204833,-0.000643913,-4.44341E-05,8.52219E-05,-5.35687E-05,0.582202972,0.22971039,0.001334086
0.001027457,-0.003467136,-0.000611558,-4.24613E-05,7.85407E-05,-5.48274E-05,0.582202885,0.229710554,0.001333978
0.00110781,-0.003710363,-0.000572009,-4.03243E-05,7.13534E-05,-5.60149E-05,0.582202802,0.229710704,0.001333867
0.001183909,-0.003933561,-0.000524017,-3.80301E-05,6.36992E-05,-5.71155E-05,0.582202723,0.229710839,0.001333754
0.001254328,-0.004135909,-0.000466427,-3.55887E-05,5.56191E-05,-5.8111E-05,0.58220265,0.229710959,0.001333638
0.001317727,-0.004316722,-0.000398203,-3.30128E-05,4.71556E-05,-5.89812E-05,0.582202581,0.229711062,0.001333521
0.001372859,-0.004475444,-0.000318435,-3.03178E-05,3.83522E-05,-5.97038E-05,0.582202518,0.229711147,0.001333403
0.001418588,-0.004611649,-0.000226348,-2.75213E-05,2.92538E-05,-6.02549E-05,0.58220246,0.229711215,0.001333282
0.001453902,-0.00472504,-0.000121313,-2.46434E-05,1.99057E-05,-6.06092E-05,0.582202408,0.229711264,0.001333162
0.001477937,-0.004815441,-2.8579E-06,-2.17057E-05,1.03536E-05,-6.07402E-05,0.582202361,0.229711295,0.00133304
0.001489992,-0.004882803,0.000129327,-1.87317E-05,6.43886E-07,-6.06206E-05,0.582202321,0.229711306,0.001332919
0.001489548,-0.00492719,0.000275375,-1.57458E-05,-9.17756E-06,-6.02229E-05,0.582202286,0.229711297,0.001332798
0.001476277,-0.004948785,0.000435227,-1.27735E-05,-1.90649E-05,-5.95191E-05,0.582202258,0.229711269,0.001332678
0.001450056,-0.004947882,0.000608625,-9.84066E-06,-2.89727E-05,-5.8482E-05,0.582202235,0.229711221,0.001332559
0.00141097,-0.004924891,0.000795104,-6.97325E-06,-3.88564E-05,-5.70846E-05,0.582202218,0.229711153,0.001332444
0.001359316,-0.004880335,0.00099399,-4.19678E-06,-4.86723E-05,-5.53016E-05,0.582202207,0.229711066,0.001332331
0.001295606,-0.004814851,0.001204406,-1.53598E-06,-5.83777E-05,-5.31087E-05,0.582202202,0.229710958,0.001332223
0.001220553,-0.004729193,0.001425287,9.85642E-07,-6.79317E-05,-5.04839E-05,0.582202201,0.229710832,0.001332119
0.001135066,-0.004624232,0.001655397,3.34623E-06,-7.72945E-05,-4.74075E-05,0.582202206,0.229710687,0.001332021
0.001040238,-0.00450096,0.001893349,5.52591E-06,-8.64286E-05,-4.38623E-05,0.582202214,0.229710523,0.001331929
0.000937327,-0.004360489,0.002137619,7.50718E-06,-9.52984E-05,-3.98341E-05,0.582202228,0.229710341,0.001331845
0.000827742,-0.004204058,0.002386566,9.27521E-06,-0.000103871,-3.53119E-05,0.582202245,0.229710142,0.00133177
0.000713018,-0.004033022,0.002638438,1.08181E-05,-0.000112115,-3.02879E-05,0.582202265,0.229709926,0.001331704
0.000594799,-0.00384885,0.002891382,1.21273E-05,-0.000120003,-2.47581E-05,0.582202288,0.229709693,0.001331649
0.00047481,-0.003653106,0.00314345,1.31973E-05,-0.00012751,-1.87223E-05,0.582202313,0.229709446,0.001331605
0.000354836,-0.003447433,0.003392605,1.40265E-05,-0.000134615,-1.21843E-05,0.582202341,0.229709183,0.001331574
0.000236699,-0.003233522,0.00363673,1.46167E-05,-0.0001413,-5.15192E-06,0.582202369,0.229708907,0.001331556
0.000122227,-0.003013091,0.003873641,1.49733E-05,-0.000147549,2.36261E-06,0.582202399,0.229708618,0.001331553
1.32331E-05,-0.002787852,0.004101099,1.51056E-05,-0.000153352,1.03426E-05,0.582202429,0.229708317,0.001331566
-8.85206E-05,-0.002559478,0.004316831,1.50263E-05,-0.000158701,1.8767E-05,0.582202459,0.229708005,0.001331594
-0.000181345,-0.002329568,0.004518541,1.47515E-05,-0.00016359,2.761E-05,0.582202489,0.229707682,0.001331641
-0.000263649,-0.002099619,0.004703931,1.43009E-05,-0.000168019,3.68412E-05,0.582202518,0.22970735,0.001331705
-0.000333964,-0.001870994,0.004870713,1.36969E-05,-0.000171988,4.64257E-05,0.582202547,0.22970701,0.001331788
-0.000390957,-0.001644899,0.005016625,1.2965E-05,-0.000175503,5.6324E-05,0.582202573,0.229706662,0.001331891
-0.000433451,-0.001422366,0.005139453,1.21331E-05,-0.000178568,6.64922E-05,0.582202598,0.229706308,0.001332013
-0.000460433,-0.001204244,0.005237047,1.12312E-05,-0.000181192,7.68818E-05,0.582202622,0.229705948,0.001332157
-0.000471074,-0.000991197,0.005307352,1.02914E-05,-0.000183385,8.74404E-05,0.582202643,0.229705583,0.001332321
-0.000464732,-0.000783712,0.00534843,9.34692E-06,-0.000185157,9.81112E-05,0.582202663,0.229705214,0.001332506
-0.00044096,-0.000582099,0.005358489,8.43243E-06,-0.00018652,0.000108834,0.582202681,0.229704843,0.001332713
-0.000399514,-0.000386507,0.005335909,7.58308E-06,-0.000187485,0.000119545,0.582202697,0.229704468,0.001332942
-0.000340356,-0.000196931,0.005279269,6.83437E-06,-0.000188066,0.000130178,0.582202711,0.229704093,0.001333191
-0.000263659,-1.32321E-05,0.005187387,6.22165E-06,-0.000188273,0.000140662,0.582202724,0.229703716,0.001333462
-0.00016981,0.000164842,0.005059346,5.77973E-06,-0.000188119,0.000150927,0.582202736,0.22970334,0.001333754
-5.94142E-05,0.000337633,0.004894536,5.54241E-06,-0.000187614,0.0001609,0.582202747,0.229702964,0.001334066
6.67029E-05,0.00050555,0.004692683,5.54208E-06,-0.000186768,0.000170505,0.582202758,0.229702589,0.001334398
0.000207495,0.000669039,0.004453879,5.80923E-06,-0.000185592,0.00017967,0.582202769,0.229702217,0.001334748
0.000361697,0.000828559,0.00417861,6.37205E-06,-0.000184092,0.000188321,0.582202781,0.229701847,0.001335116
0.000527836,0.000984567,0.003867767,7.25601E-06,-0.000182277,0.000196385,0.582202795,0.22970148,0.001335501
0.000704242,0.001137497,0.003522664,8.4834E-06,-0.000180154,0.000203792,0.58220281,0.229701118,0.001335902
0.000889061,0.001287755,0.003145033,1.0073E-05,-0.000177727,0.000210475,0.582202829,0.22970076,0.001336317
0.001080284,0.001435709,0.002737025,1.20396E-05,-0.000175003,0.000216372,0.582202851,0.229700407,0.001336744
0.001275765,0.001581688,0.002301188,1.43941E-05,-0.000171985,0.000221424,0.582202877,0.22970006,0.001337182
0.001473253,0.00172598,0.001840447,1.71427E-05,-0.000168676,0.000225577,0.582202908,0.229699719,0.00133763
0.00167042,0.00186883,0.00135807,2.02871E-05,-0.000165081,0.000228785,0.582202945,0.229699385,0.001338084
0.001864891,0.002010443,0.000857631,2.38244E-05,-0.000161201,0.000231009,0.582202989,0.229699058,0.001338545
0.002054278,0.002150986,0.00034296,2.77467E-05,-0.000157039,0.000232216,0.582203041,0.22969874,0.001339008
0.002236202,0.002290597,-0.000181899,3.20415E-05,-0.000152597,0.000232381,0.5822031,0.22969843,0.001339474
0.002408335,0.002429377,-0.000712751,3.66915E-05,-0.000147876,0.000231488,0.582203169,0.22969813,0.001339938
0.002568423,0.002567395,-0.001245309,4.16748E-05,-0.000142879,0.00022953,0.582203247,0.229697839,0.001340399
0.002714325,0.002704683,-0.001775257,4.69652E-05,-0.000137607,0.000226507,0.582203336,0.229697558,0.001340856
0.002844033,0.002841232,-0.00229831,5.25321E-05,-0.000132061,0.000222429,0.582203435,0.229697288,0.001341306
0.002955704,0.002976983,-0.002810274,5.83413E-05,-0.000126242,0.000217314,0.582203546,0.22969703,0.001341746
0.003047677,0.003111826,-0.003307103,6.43549E-05,-0.000120153,0.000211188,0.582203668,0.229696783,0.001342175
0.003118484,0.003245584,-0.003784946,7.0532E-05,-0.000113795,0.000204085,0.582203803,0.229696549,0.001342591
0.00316686,0.003378014,-0.004240196,7.68289E-05,-0.00010717,0.000196048,0.58220395,0.229696328,0.001342991
0.003191749,0.003508792,-0.004669525,8.31995E-05,-0.000100283,0.000187125,0.58220411,0.229696121,0.001343375
0.003192304,0.003637504,-0.005069917,8.95959E-05,-9.31352E-05,0.00017737,0.582204283,0.229695927,0.00134374
0.003167892,0.003763646,-0.005438698,9.59687E-05,-8.57326E-05,0.000166845,0.582204469,0.229695748,0.001344084
0.003118105,0.003886611,-0.00577355,0.000102267,-7.80806E-05,0.000155615,0.582204667,0.229695584,0.001344407
0.00304276,0.004005696,-0.006072527,0.000108441,-7.01861E-05,0.000143751,0.582204878,0.229695436,0.001344707
0.002941906,0.004120102,-0.006334064,0.000114438,-6.20578E-05,0.000131325,0.582205101,0.229695303,0.001344982
0.00281583,0.004228945,-0.006556972,0.000120209,-5.37057E-05,0.000118415,0.582205336,0.229695188,0.001345232
0.002665054,0.004331277,-0.006740433,0.000125702,-4.5142E-05,0.000105097,0.582205582,0.229695089,0.001345456
0.002490337,0.004426098,-0.006883992,0.000130869,-3.63806E-05,9.14528E-05,0.582205838,0.229695007,0.001345652
0.00229266,0.004512383,-0.006987539,0.000135663,-2.74376E-05,7.75612E-05,0.582206105,0.229694943,0.001345821
0.002073221,0.004589102,-0.007051289,0.00014004,-1.83311E-05,6.35026E-05,0.582206381,0.229694897,0.001345963
0.001833416,0.004655245,-0.007075766,0.000143956,-9.08122E-06,4.93561E-05,0.582206665,0.22969487,0.001346075
0.00157482,0.004709842,-0.007061784,0.000147373,2.89881E-07,3.51995E-05,0.582206957,0.229694861,0.00134616
0.001299169,0.004751984,-0.007010423,0.000150255,9.75815E-06,2.1109E-05,0.582207255,0.229694871,0.001346216
0.001008336,0.00478084,-0.006923017,0.00015257,1.92978E-05,7.15786E-06,0.582207558,0.2296949,0.001346244
0.000704307,0.004795667,-0.006801126,0.000154289,2.88815E-05,-6.58311E-06,0.582207865,0.229694948,0.001346245
0.000389158,0.004795815,-0.00664651,0.000155387,3.84805E-05,-2.00466E-05,0.582208175,0.229695015,0.001346218
6.50334E-05,0.004780716,-0.006461099,0.000155845,4.80648E-05,-3.31692E-05,0.582208487,0.229695102,0.001346165
-0.000265884,0.004749878,-0.006246955,0.000155647,5.76034E-05,-4.5891E-05,0.582208799,0.229695208,0.001346085
-0.00060139,0.004702861,-0.006006237,0.000154782,6.70643E-05,-5.8157E-05,0.582209109,0.229695332,0.001345981
-0.000939277,0.004639265,-0.005741164,0.000153242,7.64148E-05,-6.9916E-05,0.582209418,0.229695476,0.001345853
-0.001277357,0.004558718,-0.005453989,0.000151025,8.56213E-05,-8.11216E-05,0.582209722,0.229695638,0.001345701
-0.00161347,0.004460868,-0.005146971,0.000148132,9.46497E-05,-9.17319E-05,0.582210022,0.229695818,0.001345528
-0.001945504,0.004345392,-0.004822364,0.000144571,0.000103465,-0.00010171,0.582210315,0.229696017,0.001345335
-0.0022714,0.004212009,-0.004482398,0.00014035,0.000112031,-0.000111021,0.5822106,0.229696232,0.001345121
-0.002589167,0.004060494,-0.004129272,0.000135485,0.000120313,-0.000119639,0.582210876,0.229696465,0.00134489
-0.002896892,0.003890705,-0.003765139,0.000129994,0.000128273,-0.000127538,0.582211142,0.229696714,0.001344643
-0.003192748,0.0037026,-0.00339209,0.000123898,0.000135876,-0.0001347,0.582211396,0.229696978,0.00134438
-0.003475013,0.003496264,-0.003012148,0.000117223,0.000143084,-0.000141107,0.582211638,0.229697257,0.001344104
-0.003742072,0.003271933,-0.002627258,0.000109998,0.000149861,-0.000146748,0.582211865,0.22969755,0.001343816
-0.003992433,0.003030014,-0.002239291,0.000102254,0.000156171,-0.000151616,0.582212078,0.229697857,0.001343517
-0.004224729,0.002771109,-0.001850041,9.40278E-05,0.000161981,-0.000155705,0.582212274,0.229698175,0.001343209
-0.004437719,0.00249602,-0.001461218,8.53554E-05,0.000167256,-0.000159016,0.582212454,0.229698504,0.001342894
-0.004630289,0.002205758,-0.001074454,7.62769E-05,0.000171965,-0.00016155,0.582212615,0.229698844,0.001342573
-0.004801445,0.001901528,-0.000691286,6.68343E-05,0.000176079,-0.000163314,0.582212759,0.229699192,0.001342248
-0.004950316,0.001584727,-0.000313165,5.70712E-05,0.000179571,-0.000164315,0.582212883,0.229699548,0.00134192
-0.005076145,0.001256927,5.85564E-05,4.7033E-05,0.000182418,-0.000164567,0.582212987,0.229699911,0.001341591
-0.005178304,0.000919869,0.000422614,3.67666E-05,0.000184599,-0.000164081,0.582213071,0.229700278,0.001341262
-0.005256289,0.00057545,0.000777834,2.63198E-05,0.000186097,-0.000162876,0.582213134,0.229700649,0.001340935
-0.005309739,0.000225712,0.001123133,1.57414E-05,0.0001869,-0.00016097,0.582213176,0.229701022,0.00134061
-0.005338437,-0.000127176,0.001457511,5.08083E-06,0.000187,-0.000158384,0.582213197,0.229701397,0.001340291
-0.005342318,-0.000480938,0.001780045,-5.61233E-06,0.000186392,-0.00015514,0.582213197,0.22970177,0.001339977
-0.005321477,-0.000833215,0.002089889,-1.62884E-05,0.000185076,-0.000151263,0.582213175,0.229702142,0.00133967
-0.005276171,-0.001181595,0.00238626,-2.68982E-05,0.000183059,-0.00014678,0.582213131,0.229702511,0.001339372
-0.00520682,-0.001523639,0.002668432,-3.73931E-05,0.00018035,-0.000141718,0.582213067,0.229702874,0.001339083
-0.005114007,-0.0018569,0.002935731,-4.77255E-05,0.000176964,-0.000136107,0.582212982,0.229703232,0.001338805
-0.004998472,-0.002178955,0.003187526,-5.78492E-05,0.000172922,-0.000129975,0.582212876,0.229703582,0.001338539
-0.00486111,-0.00248742,0.003423226,-6.77194E-05,0.000168249,-0.000123356,0.58221275,0.229703924,0.001338285
-0.004702961,-0.002779981,0.00364228,-7.72936E-05,0.000162973,-0.000116282,0.582212605,0.229704255,0.001338045
-0.004525199,-0.003054416,0.003844179,-8.65312E-05,0.000157129,-0.000108787,0.582212441,0.229704576,0.00133782
-0.004329122,-0.003308623,0.004028456,-9.53944E-05,0.000150755,-0.000100906,0.582212259,0.229704884,0.00133761
-0.004116133,-0.003540647,0.004194681,-0.000103848,0.000143894,-9.26735E-05,0.58221206,0.229705179,0.001337416
-0.003887728,-0.003748703,0.004342464,-0.000111859,0.000136592,-8.4127E-05,0.582211844,0.229705459,0.001337239
-0.003645479,-0.003931204,0.004471443,-0.000119399,0.000128899,-7.53036E-05,0.582211612,0.229705725,0.00133708
-0.003391009,-0.00408678,0.004581281,-0.000126441,0.000120868,-6.62413E-05,0.582211366,0.229705975,0.001336938
-0.003125976,-0.004214298,0.00467166,-0.000132963,0.000112552,-5.69785E-05,0.582211106,0.229706208,0.001336815
-0.002852039,-0.004312873,0.00474227,-0.000138945,0.00010401,-4.75546E-05,0.582210834,0.229706425,0.00133671
-0.002570836,-0.004381879,0.004792811,-0.000144371,9.53007E-05,-3.80094E-05,0.582210551,0.229706625,0.001336625
-0.002283952,-0.004420965,0.004822992,-0.000149228,8.64829E-05,-2.83834E-05,0.582210257,0.229706806,0.001336558
-0.00199289,-0.004430063,0.004832537,-0.000153507,7.76168E-05,-1.87175E-05,0.582209954,0.22970697,0.001336511
-0.001699045,-0.004409396,0.004821191,-0.0001572,6.87626E-05,-9.05324E-06,0.582209643,0.229707117,0.001336483
-0.001403686,-0.004359484,0.004788734,-0.000160303,5.99793E-05,5.6729E-07,0.582209325,0.229707246,0.001336475
-0.001107937,-0.00428114,0.004734991,-0.000162814,5.13247E-05,1.01017E-05,0.582209002,0.229707357,0.001336486
-0.000812768,-0.004175462,0.004659836,-0.000164735,4.28547E-05,1.95073E-05,0.582208674,0.229707451,0.001336515
-0.000518989,-0.004043822,0.004563209,-0.000166065,3.46228E-05,2.8741E-05,0.582208343,0.229707528,0.001336564
-0.00022725,-0.00388785,0.004445113,-0.000166811,2.66794E-05,3.77601E-05,0.582208009,0.229707589,0.00133663
6.19491E-05,-0.003709413,0.004305627,-0.000166974,1.90714E-05,4.65215E-05,0.582207675,0.229707635,0.001336715
0.000348239,-0.003510594,0.004144916,-0.000166563,1.18418E-05,5.49826E-05,0.582207342,0.229707666,0.001336816
0.000631358,-0.00329368,0.003963258,-0.000165582,5.02904E-06,6.31012E-05,0.582207009,0.229707682,0.001336935
0.00091112,-0.003061132,0.003761059,-0.000164037,-1.33296E-06,7.08356E-05,0.582206679,0.229707686,0.001337069
0.001187382,-0.002815564,0.003538886,-0.000161937,-7.21549E-06,7.81454E-05,0.582206353,0.229707677,0.001337218
0.00146002,-0.002559712,0.003297481,-0.000159288,-1.25952E-05,8.49912E-05,0.582206032,0.229707657,0.001337381
0.001728902,-0.002296391,0.003037765,-0.000156097,-1.74543E-05,9.13353E-05,0.582205716,0.229707627,0.001337558
0.001993871,-0.002028459,0.002760841,-0.000152372,-2.17808E-05,9.71422E-05,0.582205407,0.229707587,0.001337747
0.002254731,-0.001758769,0.002467977,-0.000148121,-2.55682E-05,0.000102379,0.582205106,0.229707539,0.001337946
0.002511239,-0.001490125,0.002160595,-0.000143353,-2.88159E-05,0.000107014,0.582204815,0.229707485,0.001338156
0.002763097,-0.001225237,0.001840252,-0.000138077,-3.15287E-05,0.000111021,0.582204533,0.229707424,0.001338374
0.003009949,-0.00096668,0.001508626,-0.000132301,-3.37168E-05,0.000114375,0.582204262,0.229707359,0.0013386
0.00325138,-0.000716868,0.001167498,-0.000126037,-3.53954E-05,0.000117056,0.582204004,0.229707289,0.001338832
0.003486918,-0.000478018,0.000818736,-0.000119295,-3.65843E-05,0.000119045,0.582203758,0.229707217,0.001339068
0.003716031,-0.000252138,0.000464274,-0.000112089,-3.73075E-05,0.000120331,0.582203527,0.229707143,0.001339308
0.00393813,-4.10111E-05,0.000106096,-0.000104431,-3.75928E-05,0.000120902,0.58220331,0.229707068,0.00133955
0.004152567,0.000153812,-0.000253781,-9.63365E-05,-3.74715E-05,0.000120755,0.582203109,0.229706993,0.001339792
0.004358633,0.000331014,-0.000613328,-8.78209E-05,-3.69776E-05,0.000119887,0.582202924,0.229706918,0.001340033
0.004555557,0.000489504,-0.000970512,-7.8902E-05,-3.61475E-05,0.000118302,0.582202758,0.229706845,0.001340271
0.004742509,0.000628416,-0.001323317,-6.95987E-05,-3.50196E-05,0.000116005,0.582202609,0.229706773,0.001340506
0.0049186,0.000747093,-0.001669753,-5.99319E-05,-3.36338E-05,0.000113008,0.582202479,0.229706705,0.001340735
0.00508289,0.000845081,-0.002007874,-4.99243E-05,-3.20312E-05,0.000109326,0.582202369,0.229706639,0.001340958
0.005234394,0.000922115,-0.002335783,-3.96004E-05,-3.02535E-05,0.000104977,0.582202279,0.229706576,0.001341173
0.00537209,0.000978111,-0.00265165,-2.89867E-05,-2.83427E-05,9.99829E-05,0.582202211,0.229706518,0.001341378
0.005494931,0.001013147,-0.002953716,-1.8112E-05,-2.6341E-05,9.43702E-05,0.582202164,0.229706463,0.001341573
0.005601855,0.001027453,-0.0032403,-7.00701E-06,-2.42901E-05,8.81681E-05,0.582202138,0.229706412,0.001341755
0.005691796,0.001021399,-0.003509809,4.29539E-06,-2.22312E-05,8.1409E-05,0.582202135,0.229706366,0.001341925
0.005763702,0.000995492,-0.003760738,1.57602E-05,-2.02045E-05,7.41288E-05,0.582202155,0.229706324,0.001342081
0.005816544,0.000950376,-0.003991676,2.73502E-05,-1.82492E-05,6.63661E-05,0.582202199,0.229706285,0.001342222
0.00584934,0.000886836,-0.004201319,3.90263E-05,-1.6403E-05,5.81621E-05,0.582202265,0.229706251,0.001342346
0.00586117,0.0008058,-0.004388477,5.07476E-05,-1.47019E-05,4.95608E-05,0.582202355,0.229706219,0.001342454
0.0058512,0.000708338,-0.004552086,6.2471E-05,-1.31798E-05,4.06082E-05,0.582202468,0.229706192,0.001342545
0.005818693,0.000595653,-0.004691224,7.41524E-05,-1.18685E-05,3.13524E-05,0.582202605,0.229706167,0.001342617
0.005763032,0.000469078,-0.004805111,8.57458E-05,-1.07972E-05,2.18433E-05,0.582202764,0.229706144,0.00134267
0.005683723,0.000330062,-0.004893109,9.72045E-05,-9.99224E-06,1.2132E-05,0.582202948,0.229706124,0.001342704
0.005580406,0.00018016,-0.004954719,0.000108481,-9.47697E-06,2.27087E-06,0.582203153,0.229706104,0.001342719
0.005452859,2.10259E-05,-0.004989576,0.000119526,-9.2716E-06,-7.68688E-06,0.582203381,0.229706086,0.001342713
0.005300995,-0.000145598,-0.004997445,0.000130292,-9.39287E-06,-1.76874E-05,0.582203631,0.229706067,0.001342688
0.005124867,-0.000317897,-0.00497822,0.00014073,-9.85399E-06,-2.76767E-05,0.582203903,0.229706048,0.001342643
0.004924667,-0.00049399,-0.004931928,0.000150792,-1.06645E-05,-3.76003E-05,0.582204194,0.229706028,0.001342577
0.004700738,-0.000671949,-0.004858728,0.000160429,-1.18299E-05,-4.74044E-05,0.582204506,0.229706005,0.001342492
0.004453573,-0.000849824,-0.004758921,0.000169595,-1.33523E-05,-5.70352E-05,0.582204836,0.22970598,0.001342388
0.004183828,-0.001025662,-0.004632954,0.000178243,-1.52292E-05,-6.64401E-05,0.582205184,0.229705952,0.001342264
0.003892321,-0.001197546,-0.004481427,0.00018633,-1.74549E-05,-7.5567E-05,0.582205549,0.22970592,0.001342122
0.003580032,-0.001363617,-0.004305093,0.000193812,-2.00194E-05,-8.43658E-05,0.582205929,0.229705882,0.001341962
0.003248103,-0.001522104,-0.004104863,0.00020065,-2.29094E-05,-9.27874E-05,0.582206324,0.229705839,0.001341784
0.002897831,-0.001671339,-0.003881807,0.000206805,-2.61078E-05,-0.000100785,0.582206732,0.229705791,0.001341591
0.002530669,-0.001809778,-0.003637148,0.000212241,-2.95947E-05,-0.000108315,0.582207151,0.229705735,0.001341381
0.00214822,-0.001936006,-0.003372269,0.000216927,-3.3347E-05,-0.000115334,0.582207581,0.229705672,0.001341157
0.001752239,-0.002048747,-0.003088702,0.000220834,-3.73388E-05,-0.000121804,0.582208019,0.229705602,0.00134092
0.001344619,-0.002146873,-0.002788132,0.000223936,-4.15419E-05,-0.000127689,0.582208464,0.229705523,0.00134067
0.000927389,-0.002229406,-0.002472376,0.000226213,-4.59262E-05,-0.000132956,0.582208915,0.229705435,0.001340409
0.000502698,-0.002295534,-0.002143377,0.000227646,-5.04596E-05,-0.000137578,0.582209369,0.229705339,0.001340138
7.28014E-05,-0.002344612,-0.001803178,0.000228223,-5.51084E-05,-0.00014153,0.582209826,0.229705234,0.001339859
-0.000359958,-0.002376169,-0.001453906,0.000227937,-5.9838E-05,-0.000144791,0.582210282,0.229705119,0.001339572
-0.000793169,-0.002389904,-0.001097763,0.000226784,-6.46131E-05,-0.000147345,0.582210737,0.229704994,0.00133928
-0.001224366,-0.002385687,-0.00073701,0.000224764,-6.93976E-05,-0.000149182,0.582211189,0.22970486,0.001338983
-0.001651059,-0.002363544,-0.000373966,0.000221886,-7.41558E-05,-0.000150293,0.582211636,0.229704717,0.001338683
-0.002070746,-0.002323662,-1.09936E-05,0.00021816,-7.88518E-05,-0.000150678,0.582212077,0.229704564,0.001338382
-0.002480942,-0.002266381,0.000349501,0.000213603,-8.34505E-05,-0.000150337,0.582212509,0.229704401,0.00133808
-0.002879196,-0.00219219,0.000705085,0.000208236,-8.79173E-05,-0.00014928,0.582212931,0.22970423,0.00133778
-0.003263115,-0.002101729,0.001053311,0.000202086,-9.22192E-05,-0.000147517,0.582213342,0.22970405,0.001337483
-0.003630377,-0.001995781,0.00139174,0.000195184,-9.63243E-05,-0.000145066,0.58221374,0.229703861,0.00133719
-0.003978755,-0.00187527,0.001717964,0.000187565,-0.000100202,-0.00014195,0.582214123,0.229703664,0.001336903
-0.004306127,-0.001741258,0.002029638,0.000179269,-0.000103825,-0.000138195,0.58221449,0.22970346,0.001336622
-0.004610497,-0.001594935,0.002324503,0.00017034,-0.000107167,-0.000133832,0.58221484,0.229703249,0.00133635
-0.004890014,-0.001437604,0.002600411,0.000160827,-0.000110205,-0.000128897,0.582215171,0.229703031,0.001336087
-0.005142984,-0.001270656,0.00285535,0.00015078,-0.000112918,-0.00012343,0.582215483,0.229702808,0.001335834
-0.005367895,-0.001095552,0.003087461,0.000140255,-0.000115288,-0.000117475,0.582215774,0.22970258,0.001335593
-0.005563437,-0.000913785,0.003295061,0.000129309,-0.0001173,-0.00011108,0.582216044,0.229702347,0.001335365
-0.005728519,-0.000726867,0.003476668,0.000118001,-0.000118943,-0.000104295,0.582216292,0.229702111,0.001335149
-0.005862292,-0.000536302,0.00363103,0.000106395,-0.000120207,-9.71734E-05,0.582216516,0.229701871,0.001334947
-0.005964158,-0.000343574,0.003757151,9.45521E-05,-0.000121088,-8.97709E-05,0.582216717,0.22970163,0.00133476
-0.006033789,-0.000150138,0.003854324,8.2538E-05,-0.000121582,-8.21448E-05,0.582216894,0.229701387,0.001334588
-0.006071127,4.25841E-05,0.003922143,7.0417E-05,-0.000121689,-7.43536E-05,0.582217047,0.229701143,0.001334432
-0.006076399,0.000233201,0.003960522,5.82535E-05,-0.000121411,-6.64562E-05,0.582217176,0.2297009,0.001334291
-0.006050119,0.000420358,0.003969697,4.61114E-05,-0.000120756,-5.85115E-05,0.58221728,0.229700658,0.001334166
-0.005993096,0.000602731,0.003950231,3.4053E-05,-0.00011973,-5.05774E-05,0.58221736,0.229700417,0.001334057
-0.005906426,0.000779038,0.003902997,2.2139E-05,-0.000118345,-4.27106E-05,0.582217416,0.229700179,0.001333964
-0.00579149,0.000948048,0.003829169,1.04273E-05,-0.000116614,-3.49654E-05,0.582217449,0.229699944,0.001333886
-0.005649925,0.001108589,0.003730194,-1.02695E-06,-0.000114553,-2.73939E-05,0.582217458,0.229699712,0.001333824
-0.005483599,0.001259556,0.003607767,-1.21724E-05,-0.000112179,-2.00446E-05,0.582217445,0.229699486,0.001333776
-0.005294571,0.001399921,0.003463801,-2.29614E-05,-0.000109514,-1.29628E-05,0.58221741,0.229699264,0.001333744
-0.005085047,0.001528736,0.003300395,-3.33506E-05,-0.00010658,-6.18944E-06,0.582217353,0.229699047,0.001333725
-0.004857336,0.001645141,0.0031198,-4.33015E-05,-0.0001034,2.38768E-07,0.582217276,0.229698837,0.001333719
-0.004613813,0.001748367,0.002924383,-5.278E-05,-9.99992E-05,6.28976E-06,0.58221718,0.229698634,0.001333726
-0.00435687,0.001837744,0.002716586,-6.17568E-05,-9.6406E-05,1.19363E-05,0.582217065,0.229698437,0.001333744
-0.004088892,0.001912696,0.002498892,-7.02075E-05,-9.26483E-05,1.71561E-05,0.582216933,0.229698248,0.001333773
-0.003812223,0.001972747,0.002273787,-7.81124E-05,-8.87553E-05,2.19319E-05,0.582216784,0.229698067,0.001333813
-0.003529145,0.002017521,0.002043726,-8.54564E-05,-8.47573E-05,2.62512E-05,0.58221662,0.229697893,0.001333861
-0.003241857,0.00204675,0.001811108,-9.22289E-05,-8.06852E-05,3.01068E-05,0.582216442,0.229697728,0.001333918
-0.002952464,0.00206028,0.001578255,-9.84238E-05,-7.65703E-05,3.34957E-05,0.582216251,0.229697571,0.001333981
-0.00266296,0.002058081,0.001347397,-0.000104039,-7.24441E-05,3.64198E-05,0.582216049,0.229697421,0.001334052
-0.002375222,0.002040258,0.00112066,-0.000109076,-6.83379E-05,3.88853E-05,0.582215835,0.229697281,0.001334127
-0.002091007,0.002007055,0.00090006,-0.00011354,-6.4283E-05,4.09024E-05,0.582215612,0.229697148,0.001334207
-0.001811951,0.001958865,0.000687496,-0.00011744,-6.03097E-05,4.24855E-05,0.582215381,0.229697024,0.001334291
-0.001539566,0.001896229,0.000484745,-0.000120787,-5.64476E-05,4.36524E-05,0.582215143,0.229696907,0.001334377
-0.001275245,0.001819837,0.000293467,-0.000123598,-5.27248E-05,4.44245E-05,0.582214898,0.229696798,0.001334465
-0.001020261,0.001730515,0.000115202,-0.000125888,-4.91682E-05,4.48263E-05,0.582214648,0.229696696,0.001334555
-0.000775764,0.001629213,-4.86244E-05,-0.000127679,-4.58027E-05,4.48853E-05,0.582214394,0.229696601,0.001334645
-0.000542783,0.001516991,-0.000196702,-0.000128992,-4.26514E-05,4.46318E-05,0.582214137,0.229696513,0.001334734
-0.00032222,0.001394998,-0.000327841,-0.00012985,-3.97348E-05,4.40985E-05,0.582213878,0.229696431,0.001334823
-0.000114843,0.001264458,-0.000440982,-0.00013028,-3.70714E-05,4.33204E-05,0.582213618,0.229696354,0.001334911
7.8716E-05,0.001126651,-0.000535208,-0.000130309,-3.4677E-05,4.23346E-05,0.582213357,0.229696282,0.001334996
0.000257965,0.000982904,-0.000609761,-0.000129966,-3.25648E-05,4.11796E-05,0.582213097,0.229696215,0.00133508
0.000422552,0.000834584,-0.000664054,-0.000129278,-3.07453E-05,3.98955E-05,0.582212837,0.229696152,0.001335161
0.000572265,0.000683095,-0.000697688,-0.000128275,-2.92264E-05,3.85234E-05,0.58221258,0.229696092,0.00133524
0.000707028,0.000529876,-0.000710463,-0.000126989,-2.8013E-05,3.71048E-05,0.582212324,0.229696035,0.001335315
0.000826894,0.000376405,-0.000702394,-0.000125447,-2.71069E-05,3.56815E-05,0.582212072,0.22969598,0.001335388
0.000932037,0.000224184,-0.000673723,-0.000123681,-2.65073E-05,3.42952E-05,0.582211823,0.229695927,0.001335458
0.001022748,7.47299E-05,-0.000624916,-0.000121719,-2.62102E-05,3.29866E-05,0.582211577,0.229695874,0.001335525
0.001099423,-7.04464E-05,-0.000556661,-0.00011959,-2.62084E-05,3.17955E-05,0.582211336,0.229695822,0.00133559
0.001162563,-0.000209868,-0.000469865,-0.000117321,-2.6492E-05,3.076E-05,0.582211099,0.229695769,0.001335652
0.001212762,-0.000342117,-0.000365639,-0.00011494,-2.70479E-05,2.99161E-05,0.582210866,0.229695716,0.001335713
0.001250712,-0.000465858,-0.000245295,-0.00011247,-2.78604E-05,2.92974E-05,0.582210639,0.229695661,0.001335772
0.0012772,-0.000579858,-0.000110335,-0.000109937,-2.89113E-05,2.89349E-05,0.582210416,0.229695604,0.00133583
0.001293108,-0.000682992,3.75506E-05,-0.000107362,-3.01799E-05,2.88561E-05,0.582210199,0.229695545,0.001335888
0.001299407,-0.000774258,0.000196494,-0.000104764,-3.16433E-05,2.90851E-05,0.582209987,0.229695484,0.001335946
0.001297149,-0.000852775,0.000364453,-0.000102164,-3.32769E-05,2.96421E-05,0.58220978,0.229695419,0.001336004
0.001287458,-0.000917793,0.000539226,-9.95759E-05,-3.50544E-05,3.05429E-05,0.582209578,0.229695351,0.001336064
0.001271515,-0.000968691,0.000718465,-9.70141E-05,-3.69481E-05,3.1799E-05,0.582209382,0.229695279,0.001336126
0.00125054,-0.001004984,0.000899699,-9.44898E-05,-3.89292E-05,3.34168E-05,0.58220919,0.229695203,0.001336191
0.001225782,-0.001026329,0.001080358,-9.20119E-05,-4.0968E-05,3.53978E-05,0.582209004,0.229695123,0.00133626
0.001198504,-0.001032522,0.001257809,-8.95867E-05,-4.30345E-05,3.77382E-05,0.582208822,0.229695039,0.001336333
0.001169963,-0.001023509,0.00142939,-8.72179E-05,-4.50981E-05,4.0429E-05,0.582208646,0.229694951,0.001336411
0.001141406,-0.000999378,0.001592448,-8.49068E-05,-4.71285E-05,4.34558E-05,0.582208473,0.229694859,0.001336495
0.001114045,-0.00096036,0.001744366,-8.26523E-05,-4.90956E-05,4.67988E-05,0.582208306,0.229694762,0.001336585
0.001089053,-0.000906827,0.001882594,-8.04506E-05,-5.09699E-05,5.04332E-05,0.582208143,0.229694662,0.001336682
0.001067543,-0.000839278,0.002004676,-7.82961E-05,-5.27229E-05,5.43292E-05,0.582207984,0.229694558,0.001336786
0.001050553,-0.000758327,0.002108274,-7.61805E-05,-5.43271E-05,5.84519E-05,0.58220783,0.229694451,0.001336899
0.00103903,-0.000664688,0.002191201,-7.40938E-05,-5.57562E-05,6.27623E-05,0.582207679,0.229694341,0.00133702
0.001033818,-0.00055915,0.002251447,-7.20244E-05,-5.69858E-05,6.72167E-05,0.582207533,0.229694228,0.00133715
0.00103564,-0.00044257,0.002287227,-6.99586E-05,-5.79928E-05,7.1768E-05,0.582207391,0.229694113,0.001337289
0.001045089,-0.000315854,0.002297007,-6.78818E-05,-5.87561E-05,7.63656E-05,0.582207253,0.229693996,0.001337437
0.00106261,-0.000179958,0.002279555,-6.57782E-05,-5.92562E-05,8.09561E-05,0.58220712,0.229693878,0.001337595
0.001088495,-3.58884E-05,0.002233963,-6.36313E-05,-5.94759E-05,8.54838E-05,0.58220699,0.229693759,0.001337761
0.00112287,0.000115289,0.002159687,-6.14242E-05,-5.93998E-05,8.98919E-05,0.582206865,0.22969364,0.001337937
0.001165688,0.000272439,0.00205656,-5.91399E-05,-5.90148E-05,9.41226E-05,0.582206745,0.229693522,0.001338121
0.001216727,0.000434348,0.001924816,-5.67615E-05,-5.831E-05,9.81182E-05,0.582206629,0.229693404,0.001338313
0.001275584,0.000599719,0.001765086,-5.4273E-05,-5.72774E-05,0.000101822,0.582206518,0.229693288,0.001338513
0.001341676,0.000767173,0.001578405,-5.16592E-05,-5.59112E-05,0.000105179,0.582206412,0.229693175,0.00133872
0.001414242,0.000935252,0.001366202,-4.89063E-05,-5.42087E-05,0.000108135,0.582206311,0.229693065,0.001338934
0.001492346,0.001102433,0.00113028,-4.60022E-05,-5.21702E-05,0.000110643,0.582206216,0.229692958,0.001339153
0.001574889,0.001267147,0.000872801,-4.29369E-05,-4.9799E-05,0.000112657,0.582206127,0.229692856,0.001339376
0.001660614,0.001427803,0.000596247,-3.97026E-05,-4.71016E-05,0.000114135,0.582206044,0.229692759,0.001339603
0.001748125,0.001582808,0.000303385,-3.62944E-05,-4.40877E-05,0.000115042,0.582205968,0.229692668,0.001339833
0.001835908,0.001730601,-2.78235E-06,-3.27101E-05,-4.07703E-05,0.000115348,0.582205899,0.229692583,0.001340064
0.00192235,0.001869672,-0.000319071,-2.89508E-05,-3.71653E-05,0.00011503,0.582205837,0.229692505,0.001340294
0.002005769,0.001998582,-0.00064217,-2.50207E-05,-3.32917E-05,0.000114072,0.582205783,0.229692434,0.001340524
0.002084439,0.002115976,-0.000968696,-2.09277E-05,-2.9171E-05,0.000112462,0.582205737,0.229692371,0.001340751
0.002156619,0.002220591,-0.00129524,-1.6683E-05,-2.48278E-05,0.000110197,0.582205699,0.229692317,0.001340974
0.00222058,0.002311255,-0.001618413,-1.23012E-05,-2.02886E-05,0.000107281,0.58220567,0.229692272,0.001341191
0.002274633,0.002386893,-0.001934884,-7.80065E-06,-1.55827E-05,0.000103723,0.58220565,0.229692236,0.001341403
0.00231716,0.002446524,-0.002241422,-3.2027E-06,-1.07411E-05,9.95413E-05,0.582205639,0.22969221,0.001341606
0.002346637,0.002489267,-0.002534931,1.46799E-06,-5.79663E-06,9.47577E-05,0.582205637,0.229692193,0.001341801
0.002361672,0.002514351,-0.002812481,6.18385E-06,-7.84006E-07,8.94016E-05,0.582205645,0.229692187,0.001341985
0.002361028,0.002521123,-0.003071329,1.09147E-05,4.26077E-06,8.35077E-05,0.582205662,0.22969219,0.001342159
0.002343656,0.002509055,-0.003308947,1.5628E-05,9.30049E-06,7.71162E-05,0.582205689,0.229692204,0.001342319
0.002308721,0.002477752,-0.003523037,2.02893E-05,1.4297E-05,7.02719E-05,0.582205725,0.229692227,0.001342467
0.002255632,0.002426956,-0.003711549,2.48628E-05,1.92115E-05,6.30241E-05,0.58220577,0.229692261,0.0013426
0.002184053,0.002356548,-0.003872697,2.93118E-05,2.40048E-05,5.54257E-05,0.582205824,0.229692304,0.001342719
0.002093918,0.002266555,-0.004004967,3.35991E-05,2.86377E-05,4.75333E-05,0.582205887,0.229692357,0.001342822
0.001985434,0.00215716,-0.004107135,3.76875E-05,3.3071E-05,3.94059E-05,0.582205959,0.229692419,0.001342909
0.001859073,0.002028701,-0.004178266,4.15408E-05,3.72663E-05,3.11048E-05,0.582206038,0.229692489,0.00134298
0.001715558,0.001881694,-0.004217727,4.51238E-05,4.11858E-05,2.26928E-05,0.582206125,0.229692568,0.001343034
0.001555856,0.001716832,-0.004225182,4.8403E-05,4.47931E-05,1.42339E-05,0.582206218,0.229692654,0.001343071
0.001381153,0.001535007,-0.004200603,5.13472E-05,4.80532E-05,5.79209E-06,0.582206318,0.229692747,0.001343091
0.001192837,0.001337318,-0.004144278,5.39276E-05,5.09331E-05,-2.56856E-06,0.582206424,0.229692846,0.001343094
0.000992478,0.001125089,-0.004056814,5.61186E-05,5.34024E-05,-1.0785E-05,0.582206534,0.229692951,0.00134308
0.000781802,0.000899871,-0.003939142,5.78975E-05,5.54335E-05,-1.87958E-05,0.582206648,0.22969306,0.001343051
0.000562665,0.000663447,-0.003792509,5.92458E-05,5.70019E-05,-2.65416E-05,0.582206766,0.229693172,0.001343005
0.000337026,0.000417812,-0.003618454,6.01482E-05,5.80873E-05,-3.39658E-05,0.582206885,0.229693288,0.001342944
0.000106914,0.000165154,-0.003418782,6.05939E-05,5.86732E-05,-4.10154E-05,0.582207006,0.229693405,0.001342869
-0.000125601,-9.21901E-05,-0.003195523,6.05759E-05,5.87479E-05,-4.7641E-05,0.582207128,0.229693522,0.00134278
-0.000358437,-0.000351771,-0.00295089,6.00915E-05,5.83044E-05,-5.37975E-05,0.582207249,0.22969364,0.001342679
-0.00058953,-0.000611077,-0.002687239,5.91421E-05,5.73408E-05,-5.94445E-05,0.582207368,0.229693756,0.001342565
-0.000816855,-0.000867585,-0.002407027,5.77333E-05,5.58601E-05,-6.45465E-05,0.582207485,0.229693869,0.001342441
-0.001038451,-0.001118806,-0.002112785,5.58747E-05,5.38705E-05,-6.90726E-05,0.582207599,0.229693979,0.001342307
-0.001252434,-0.001362323,-0.001807088,5.35795E-05,5.13849E-05,-7.29976E-05,0.582207709,0.229694085,0.001342165
-0.001457018,-0.001595832,-0.001492542,5.0865E-05,4.84212E-05,-7.6301E-05,0.582207813,0.229694185,0.001342015
-0.001650522,-0.001817166,-0.001171765,4.77515E-05,4.50016E-05,-7.89678E-05,0.582207912,0.229694278,0.001341859
-0.001831386,-0.002024312,-0.000847376,4.42629E-05,4.11525E-05,-8.09881E-05,0.582208004,0.229694365,0.001341699
-0.001998181,-0.002215426,-0.000521979,4.04259E-05,3.69043E-05,-8.23573E-05,0.582208089,0.229694443,0.001341535
-0.002149622,-0.002388835,-0.000198146,3.62701E-05,3.22908E-05,-8.3076E-05,0.582208166,0.229694512,0.00134137
-0.002284583,-0.002543043,0.0001216,3.18274E-05,2.7349E-05,-8.31498E-05,0.582208234,0.229694572,0.001341203
-0.002402104,-0.002676733,0.000434807,2.71318E-05,2.21186E-05,-8.25896E-05,0.582208293,0.229694622,0.001341037
-0.002501407,-0.002788767,0.000739105,2.2219E-05,1.6642E-05,-8.14106E-05,0.582208343,0.22969466,0.001340873
-0.002581898,-0.002878193,0.001032227,1.71262E-05,1.09636E-05,-7.96331E-05,0.582208382,0.229694688,0.001340711
-0.002643176,-0.002944253,0.00131202,1.18914E-05,5.12927E-06,-7.72817E-05,0.582208411,0.229694704,0.001340554
-0.002685026,-0.002986386,0.00157646,6.55348E-06,-8.13448E-07,-7.43851E-05,0.58220843,0.229694709,0.001340402
-0.002707418,-0.003004243,0.001823668,1.15132E-06,-6.81628E-06,-7.09759E-05,0.582208437,0.229694701,0.001340257
-0.002710496,-0.002997691,0.002051918,-4.27619E-06,-1.28304E-05,-6.70904E-05,0.582208434,0.229694681,0.001340118
-0.002694571,-0.002966818,0.002259649,-9.69066E-06,-1.8807E-05,-6.27682E-05,0.58220842,0.22969465,0.001339988
-0.00266011,-0.002911931,0.00244548,-1.50545E-05,-2.46977E-05,-5.80518E-05,0.582208396,0.229694606,0.001339867
-0.002607733,-0.002833554,0.00260821,-2.03311E-05,-3.04548E-05,-5.29863E-05,0.58220836,0.229694551,0.001339756
-0.002538206,-0.002732418,0.002746834,-2.54854E-05,-3.60319E-05,-4.7619E-05,0.582208314,0.229694484,0.001339655
-0.002452434,-0.002609452,0.002860549,-3.04839E-05,-4.13844E-05,-4.19989E-05,0.582208258,0.229694407,0.001339566
-0.002351456,-0.002465776,0.002948753,-3.52951E-05,-4.64697E-05,-3.61768E-05,0.582208192,0.229694319,0.001339487
-0.002236437,-0.002302685,0.003011058,-3.98897E-05,-5.12475E-05,-3.02039E-05,0.582208117,0.229694221,0.001339421
-0.002108658,-0.002121644,0.003047287,-4.42409E-05,-5.56805E-05,-2.41325E-05,0.582208033,0.229694114,0.001339367
-0.001969508,-0.001924279,0.00305748,-4.83244E-05,-5.97341E-05,-1.80148E-05,0.58220794,0.229693998,0.001339324
-0.001820475,-0.001712363,0.003041888,-5.21189E-05,-6.33776E-05,-1.19026E-05,0.582207839,0.229693875,0.001339295
-0.001663133,-0.001487815,0.003000973,-5.56063E-05,-6.65836E-05,-5.84724E-06,0.582207732,0.229693745,0.001339277
-0.001499133,-0.001252678,0.0029354,-5.87715E-05,-6.93288E-05,1.01276E-07,0.582207617,0.229693609,0.001339271
-0.001330187,-0.001009102,0.002846022,-6.16028E-05,-7.15943E-05,5.89436E-06,0.582207496,0.229693467,0.001339277
-0.001158059,-0.000759319,0.002733861,-6.40922E-05,-7.33652E-05,1.14854E-05,0.582207371,0.229693322,0.001339295
-0.000984542,-0.000505606,0.002600086,-6.6235E-05,-7.46316E-05,1.68298E-05,0.58220724,0.229693174,0.001339323
-0.000811451,-0.000250249,0.002445985,-6.80304E-05,-7.53877E-05,2.18857E-05,0.582207106,0.229693024,0.001339362
-0.000640596,4.49074E-06,0.002272943,-6.94808E-05,-7.56326E-05,2.66137E-05,0.582206968,0.229692872,0.001339411
-0.000473767,0.000256402,0.002082422,-7.05928E-05,-7.53697E-05,3.09775E-05,0.582206828,0.229692721,0.001339469
-0.000312712,0.000503338,0.00187595,-7.13759E-05,-7.46069E-05,3.49434E-05,0.582206686,0.229692571,0.001339535
-0.000159111,0.00074323,0.00165511,-7.18436E-05,-7.33563E-05,3.84813E-05,0.582206542,0.229692423,0.001339608
-1.45539E-05,0.000974077,0.00142154,-7.20124E-05,-7.1634E-05,4.15639E-05,0.582206398,0.229692277,0.001339689
0.00011948,0.001193955,0.001176933,-7.19018E-05,-6.946E-05,4.41674E-05,0.582206254,0.229692136,0.001339775
0.000241648,0.001401009,0.000923031,-7.15344E-05,-6.68582E-05,4.62716E-05,0.582206111,0.229692,0.001339865
0.000350768,0.001593463,0.00066163,-7.09352E-05,-6.3856E-05,4.78596E-05,0.582205968,0.229691869,0.00133996
0.000445838,0.001769628,0.000394574,-7.01314E-05,-6.04844E-05,4.89181E-05,0.582205827,0.229691744,0.001340057
0.000526057,0.001927917,0.000123748,-6.91519E-05,-5.67775E-05,4.94379E-05,0.582205688,0.229691627,0.001340155
0.000590835,0.002066861,-0.00014893,-6.80271E-05,-5.27727E-05,4.94131E-05,0.58220555,0.229691517,0.001340254
0.000639805,0.002185124,-0.000421521,-6.67885E-05,-4.851E-05,4.88421E-05,0.582205415,0.229691416,0.001340353
0.000672812,0.002281523,-0.000692077,-6.54679E-05,-4.40322E-05,4.7727E-05,0.582205283,0.229691323,0.00134045
0.000689909,0.002355034,-0.000958644,-6.40973E-05,-3.9384E-05,4.60738E-05,0.582205154,0.22969124,0.001340544
0.000691344,0.002404812,-0.001219277,-6.27083E-05,-3.46121E-05,4.38925E-05,0.582205027,0.229691166,0.001340634
0.000677547,0.002430197,-0.001472042,-6.13319E-05,-2.97647E-05,4.11967E-05,0.582204903,0.229691101,0.001340719
0.000649119,0.002430729,-0.001715035,-5.99981E-05,-2.48913E-05,3.80043E-05,0.582204781,0.229691046,0.001340799
0.000606822,0.002406148,-0.001946398,-5.87354E-05,-2.00418E-05,3.43366E-05,0.582204663,0.229691002,0.001340871
0.000551569,0.002356414,-0.00216434,-5.75708E-05,-1.52667E-05,3.02187E-05,0.582204546,0.229690966,0.001340936
0.000484408,0.00228171,-0.002367159,-5.65292E-05,-1.06161E-05,2.56792E-05,0.582204432,0.229690941,0.001340992
0.000406508,0.002182466,-0.00255327,-5.56332E-05,-6.13983E-06,2.07501E-05,0.58220432,0.229690924,0.001341039
0.000319144,0.00205937,-0.002721224,-5.49031E-05,-1.88628E-06,1.54661E-05,0.58220421,0.229690916,0.001341075
0.000223679,0.00191339,-0.002869733,-5.43566E-05,2.09765E-06,9.86517E-06,0.582204101,0.229690916,0.001341101
0.000121544,0.001745782,-0.002997697,-5.40084E-05,5.76728E-06,3.98721E-06,0.582203992,0.229690924,0.001341115
1.42245E-05,0.001558102,-0.003104229,-5.38704E-05,9.08078E-06,-2.12562E-06,0.582203885,0.229690939,0.001341117
-9.67584E-05,0.001352208,-0.003188684,-5.39515E-05,1.19997E-05,-8.4297E-06,0.582203777,0.229690961,0.001341106
-0.000209868,0.00113025,-0.003250676,-5.42575E-05,1.44896E-05,-1.48804E-05,0.582203669,0.229690987,0.001341083
-0.00032357,0.000894653,-0.00329009,-5.4791E-05,1.65207E-05,-2.14324E-05,0.58220356,0.229691019,0.001341047
-0.000436356,0.000648083,-0.003307077,-5.55517E-05,1.80682E-05,-2.80407E-05,0.58220345,0.229691053,0.001340997
-0.000546764,0.00039339,-0.003302039,-5.65364E-05,1.9113E-05,-3.46607E-05,0.582203338,0.229691091,0.001340935
-0.000653399,0.000133556,-0.003275601,-5.77388E-05,1.96418E-05,-4.12489E-05,0.582203224,0.22969113,0.001340859
-0.000754955,-0.000128376,-0.003228576,-5.915E-05,1.96472E-05,-4.77631E-05,0.582203107,0.229691169,0.00134077
-0.000850221,-0.000389368,-0.003161928,-6.07586E-05,1.91283E-05,-5.41632E-05,0.582202987,0.229691208,0.001340668
-0.000938096,-0.000646447,-0.003076749,-6.25509E-05,1.80898E-05,-6.04108E-05,0.582202864,0.229691246,0.001340553
-0.001017594,-0.00089676,-0.002974231,-6.4511E-05,1.65425E-05,-6.64702E-05,0.582202737,0.229691281,0.001340426
-0.001087842,-0.001137621,-0.002855657,-6.66213E-05,1.45027E-05,-7.23078E-05,0.582202606,0.229691312,0.001340287
-0.001148094,-0.001366539,-0.002722378,-6.88624E-05,1.1992E-05,-7.78928E-05,0.58220247,0.229691339,0.001340137
-0.001197731,-0.001581247,-0.002575808,-7.12136E-05,9.03658E-06,-8.31973E-05,0.58220233,0.22969136,0.001339975
-0.001236271,-0.00177971,-0.002417409,-7.36533E-05,5.66702E-06,-8.8196E-05,0.582202185,0.229691375,0.001339804
-0.001263373,-0.001960133,-0.002248684,-7.61587E-05,1.91774E-06,-9.28669E-05,0.582202036,0.229691383,0.001339623
-0.001278832,-0.002120958,-0.002071169,-7.87068E-05,-2.17351E-06,-9.71908E-05,0.582201881,0.229691383,0.001339432
-0.001282578,-0.002260852,-0.001886424,-8.1274E-05,-6.56609E-06,-0.000101152,0.582201721,0.229691374,0.001339234
-0.001274671,-0.002378706,-0.001696025,-8.38371E-05,-1.12169E-05,-0.000104736,0.582201556,0.229691356,0.001339028
-0.001255284,-0.002473613,-0.001501541,-8.63727E-05,-1.60809E-05,-0.000107936,0.582201385,0.229691329,0.001338815
-0.001224699,-0.002544864,-0.001304521,-8.88582E-05,-2.11114E-05,-0.000110743,0.58220121,0.229691292,0.001338596
-0.001183293,-0.002591931,-0.001106462,-9.12715E-05,-2.62604E-05,-0.000113154,0.58220103,0.229691245,0.001338372
-0.001131531,-0.002614456,-0.000908792,-9.35914E-05,-3.14791E-05,-0.000115168,0.582200845,0.229691187,0.001338144
-0.001069955,-0.002612249,-0.000712838,-9.57976E-05,-3.67182E-05,-0.000116789,0.582200656,0.229691119,0.001337911
-0.000999185,-0.002585281,-0.000519812,-9.78712E-05,-4.19281E-05,-0.00011802,0.582200462,0.22969104,0.001337676
-0.000919913,-0.002533685,-0.000330782,-9.97944E-05,-4.70593E-05,-0.000118868,0.582200264,0.229690951,0.001337439
-0.000832906,-0.002457756,-0.000146656,-0.000101551,-5.20628E-05,-0.000119343,0.582200063,0.229690852,0.001337201
-0.000739003,-0.002357951,3.18434E-05,-0.000103126,-5.68903E-05,-0.000119455,0.582199858,0.229690743,0.001336962
-0.000639116,-0.002234888,0.000204193,-0.000104507,-6.14946E-05,-0.000119216,0.58219965,0.229690624,0.001336723
-0.000534229,-0.002089345,0.000370089,-0.000105682,-6.58299E-05,-0.000118638,0.58219944,0.229690497,0.001336485
-0.000425389,-0.00192227,0.000529452,-0.000106644,-6.9852E-05,-0.000117735,0.582199228,0.229690361,0.001336249
-0.000313699,-0.001734777,0.000682426,-0.000107384,-7.3519E-05,-0.00011652,0.582199013,0.229690218,0.001336014
-0.000200304,-0.001528154,0.000829374,-0.000107899,-7.67911E-05,-0.000115006,0.582198798,0.229690067,0.001335782
-8.63804E-05,-0.001303866,0.000970853,-0.000108185,-7.96316E-05,-0.000113203,0.582198582,0.22968991,0.001335554
2.68875E-05,-0.001063554,0.001107592,-0.000108244,-8.20066E-05,-0.000111122,0.582198365,0.229689748,0.00133533
0.000138322,-0.000809026,0.00124046,-0.000108078,-8.38858E-05,-0.000108772,0.582198149,0.229689582,0.00133511
0.00024678,-0.000542254,0.001370427,-0.000107691,-8.52427E-05,-0.00010616,0.582197933,0.229689413,0.001334895
0.000351171,-0.000265345,0.001498529,-0.000107091,-8.60548E-05,-0.000103291,0.582197718,0.229689241,0.001334685
0.000450487,1.94762E-05,0.001625819,-0.000106286,-8.63041E-05,-0.000100166,0.582197505,0.229689069,0.001334481
0.000543821,0.0003099,0.001753327,-0.000105289,-8.59769E-05,-9.67874E-05,0.582197293,0.229688896,0.001334284
0.000630383,0.000603557,0.001882018,-0.000104111,-8.50645E-05,-9.31528E-05,0.582197083,0.229688725,0.001334094
0.000709514,0.000898051,0.002012753,-0.000102767,-8.35627E-05,-8.92593E-05,0.582196876,0.229688556,0.001333912
0.000780691,0.001190979,0.002146252,-0.000101273,-8.14723E-05,-8.51018E-05,0.582196672,0.229688391,0.001333737
0.000843536,0.001479962,0.002283068,-9.96443E-05,-7.87988E-05,-8.06743E-05,0.582196471,0.22968823,0.001333571
0.000897814,0.001762668,0.00242355,-9.78987E-05,-7.55524E-05,-7.59696E-05,0.582196274,0.229688075,0.001333414
0.00094344,0.002036843,0.002567826,-9.60531E-05,-7.17481E-05,-7.09801E-05,0.58219608,0.229687928,0.001333267
0.000980477,0.002300345,0.002715772,-9.41249E-05,-6.74051E-05,-6.56983E-05,0.58219589,0.229687788,0.001333131
0.001009138,0.002551181,0.002867001,-9.21312E-05,-6.25467E-05,-6.0117E-05,0.582195703,0.229687658,0.001333005
0.001029782,0.002787543,0.003020847,-9.00884E-05,-5.72003E-05,-5.42303E-05,0.582195521,0.229687538,0.00133289
0.001042913,0.003007852,0.003176356,-8.8012E-05,-5.13965E-05,-4.80336E-05,0.582195343,0.229687429,0.001332788
0.001049179,0.003210781,0.003332288,-8.59167E-05,-4.51689E-05,-4.15248E-05,0.582195169,0.229687333,0.001332698
0.00104936,0.00339528,0.003487116,-8.38153E-05,-3.85534E-05,-3.47045E-05,0.582194999,0.229687249,0.001332622
0.001044365,0.003560583,0.003639041,-8.17193E-05,-3.15878E-05,-2.75764E-05,0.582194834,0.229687178,0.001332559
0.001035224,0.003706213,0.003786002,-7.96379E-05,-2.43111E-05,-2.01483E-05,0.582194672,0.229687122,0.001332511
0.001023075,0.003831973,0.003925702,-7.75784E-05,-1.6763E-05,-1.24324E-05,0.582194515,0.229687081,0.001332479
0.001009153,0.003937934,0.004055642,-7.55456E-05,-8.9832E-06,-4.44549E-06,0.582194362,0.229687055,0.001332462
0.000994773,0.00402441,0.004173159,-7.35418E-05,-1.01122E-06,3.79021E-06,0.582194213,0.229687045,0.001332461
0.0009813,0.004091937,0.00427547,-7.15665E-05,7.11445E-06,1.22471E-05,0.582194068,0.229687051,0.001332477
0.000970129,0.004141244,0.004359727,-6.96166E-05,1.53565E-05,2.08921E-05,0.582193927,0.229687074,0.00133251
0.000962644,0.004173226,0.004423073,-6.7686E-05,2.36794E-05,2.96861E-05,0.582193789,0.229687113,0.00133256
0.000960186,0.004188919,0.004462699,-6.5766E-05,3.20494E-05,3.85844E-05,0.582193656,0.229687168,0.001332628
0.000964021,0.004189475,0.00447591,-6.38452E-05,4.04351E-05,4.75369E-05,0.582193526,0.229687241,0.001332715
0.000975302,0.004176134,0.004460177,-6.19099E-05,4.88073E-05,5.6488E-05,0.582193401,0.22968733,0.001332819
0.000995046,0.004150201,0.004413202,-5.9944E-05,5.71396E-05,6.53776E-05,0.582193279,0.229687436,0.001332941
0.001024111,0.004113012,0.00433296,-5.79297E-05,6.54081E-05,7.41408E-05,0.582193161,0.229687559,0.00133308
0.001063176,0.004065905,0.004217759,-5.58476E-05,7.35917E-05,8.27094E-05,0.582193047,0.229687698,0.001333237
0.001112731,0.004010176,0.00406628,-5.3677E-05,8.16718E-05,9.10119E-05,0.582192937,0.229687853,0.001333411
0.001173069,0.003947042,0.003877628,-5.13966E-05,8.96324E-05,9.89745E-05,0.582192832,0.229688024,0.001333601
0.001244279,0.003877601,0.003651368,-4.89847E-05,9.74599E-05,0.000106522,0.582192732,0.229688212,0.001333807
0.001326245,0.003802799,0.003387556,-4.64195E-05,0.000105143,0.00011358,0.582192636,0.229688414,0.001334027
0.00141865,0.003723412,0.003086764,-4.36798E-05,0.000112671,0.000120073,0.582192546,0.229688632,0.001334261
0.001520979,0.003640022,0.002750089,-4.07449E-05,0.000120036,0.000125927,0.582192462,0.229688865,0.001334508
0.001632523,0.003553007,0.002379156,-3.75958E-05,0.000127231,0.000131073,0.582192383,0.229689112,0.001334765
0.001752392,0.00346253,0.00197611,-3.42148E-05,0.000134248,0.000135444,0.582192311,0.229689374,0.001335032
0.001879521,0.003368533,0.001543603,-3.05863E-05,0.000141081,0.000138977,0.582192246,0.229689649,0.001335307
0.002012684,0.003270738,0.001084765,-2.66968E-05,0.000147723,0.000141618,0.582192189,0.229689938,0.001335588
0.002150502,0.003168647,0.000603176,-2.25355E-05,0.000154164,0.000143316,0.58219214,0.22969024,0.001335873
0.002291466,0.00306156,0.000102823,-1.80947E-05,0.000160397,0.000144031,0.582192099,0.229690555,0.001336161
0.002433949,0.002948597,-0.000411949,-1.33697E-05,0.000166411,0.000143728,0.582192067,0.229690882,0.001336449
0.002576233,0.002828719,-0.000936483,-8.35895E-06,0.000172192,0.000142383,0.582192045,0.22969122,0.001336736
0.002716528,0.00270077,-0.001465874,-3.06474E-06,0.000177725,0.000139982,0.582192034,0.229691571,0.001337019
0.002853,0.002563508,-0.001995026,2.50716E-06,0.000182995,0.00013652,0.582192033,0.229691931,0.001337296
0.002983803,0.002415654,-0.002518722,8.34726E-06,0.000187979,0.000132002,0.582192044,0.229692302,0.001337565
0.003107105,0.002255929,-0.003031694,1.44424E-05,0.000192657,0.000126445,0.582192066,0.229692683,0.001337824
0.003221117,0.002083107,-0.003528698,2.07757E-05,0.000197003,0.000119875,0.582192102,0.229693073,0.001338071
0.003324125,0.001896062,-0.004004591,2.73268E-05,0.00020099,0.00011233,0.58219215,0.229693471,0.001338303
0.003414512,0.001693815,-0.004454401,3.40722E-05,0.000204587,0.000103857,0.582192211,0.229693877,0.00133852
0.003490784,0.001475582,-0.004873403,4.09849E-05,0.000207765,9.45122E-05,0.582192286,0.22969429,0.001338719
0.003551588,0.001240817,-0.005257186,4.80353E-05,0.00021049,8.4363E-05,0.582192375,0.229694708,0.001338898
0.003595728,0.00098924,-0.005601718,5.51912E-05,0.000212728,7.34835E-05,0.582192478,0.229695132,0.001339056
0.003622175,0.000720862,-0.005903399,6.24182E-05,0.000214447,6.19561E-05,0.582192596,0.229695559,0.001339192
0.003630073,0.000435999,-0.00615911,6.96799E-05,0.000215612,4.98699E-05,0.582192728,0.229695989,0.001339304
0.003618748,0.000135268,-0.006366251,7.69385E-05,0.000216191,3.73196E-05,0.582192874,0.229696421,0.001339391
0.003587713,-0.000180418,-0.006522771,8.41549E-05,0.000216153,2.44049E-05,0.582193035,0.229696854,0.001339453
0.003536675,-0.000509867,-0.006627189,9.12894E-05,0.000215469,1.12286E-05,0.582193211,0.229697286,0.001339489
0.003465544,-0.000851629,-0.006678598,9.83016E-05,0.000214113,-2.10388E-06,0.582193401,0.229697716,0.001339498
0.003374433,-0.001204023,-0.006676677,0.000105152,0.000212062,-1.54858E-05,0.582193604,0.229698143,0.001339481
0.003263657,-0.001565154,-0.006621682,0.000111799,0.000209297,-2.88106E-05,0.582193821,0.229698564,0.001339436
0.003133728,-0.001932941,-0.006514441,0.000118206,0.000205802,-4.19726E-05,0.582194051,0.22969898,0.001339365
0.002985345,-0.002305138,-0.006356333,0.000124334,0.000201565,-5.48684E-05,0.582194294,0.229699387,0.001339268
0.002819379,-0.002679358,-0.006149256,0.000130148,0.000196581,-6.73979E-05,0.582194549,0.229699786,0.001339146
0.002636859,-0.003053094,-0.005895594,0.000135612,0.000190848,-7.94654E-05,0.582194815,0.229700174,0.001338999
0.002438959,-0.003423757,-0.005598165,0.000140695,0.000184369,-9.09803E-05,0.582195091,0.229700549,0.001338828
0.002226971,-0.003788706,-0.005260169,0.000145368,0.000177153,-0.000101858,0.582195377,0.229700911,0.001338635
0.002002295,-0.004145288,-0.004885131,0.000149603,0.000169214,-0.000112021,0.582195673,0.229701258,0.001338421
0.001766411,-0.004490873,-0.004476842,0.000153377,0.000160572,-0.000121399,0.582195976,0.229701588,0.001338187
0.001520865,-0.004822893,-0.004039307,0.000156669,0.000151251,-0.000129928,0.582196286,0.2297019,0.001337935
0.001267252,-0.005138875,-0.003576689,0.00015946,0.00014128,-0.000137556,0.582196602,0.229702193,0.001337667
0.001007193,-0.005436465,-0.003093258,0.000161738,0.000130695,-0.000144235,0.582196924,0.229702465,0.001337385
0.000742328,-0.005713451,-0.002593344,0.000163489,0.000119534,-0.000149929,0.582197249,0.229702716,0.00133709
0.000474294,-0.005967779,-0.00208129,0.000164707,0.000107841,-0.000154608,0.582197578,0.229702944,0.001336785
0.000204711,-0.006197563,-0.001561404,0.000165386,9.56633E-05,-0.000158254,0.582197908,0.229703147,0.001336472
-6.48245E-05,-0.0064011,-0.001037918,0.000165526,8.30511E-05,-0.000160854,0.582198239,0.229703326,0.001336152
-0.000332761,-0.006576879,-0.000514939,0.000165127,7.00589E-05,-0.000162406,0.58219857,0.22970348,0.001335828
